,attack,attackProb,attackRange,choice,currProb,predatorType,reward,round,rt,totMoney,trial,subID
0,TRUE,4.800000190734863,7,8,0.9719999432563782,1,-10,1,10.631097793579102,-10,1,64
0,TRUE,2.5999999046325684,7,7,0.4160000085830688,0,-10,10,2.4561007022857666,143,10,64
0,TRUE,4.800000190734863,7,6,0.5879999995231628,1,-10,100,1.6212002038955688,1946,100,64
0,TRUE,2.5999999046325684,7,8,0.5264999270439148,0,-10,101,1.853100299835205,1936,101,64
0,FALSE,4.800000190734863,7,6,0.5879999995231628,1,36,102,1.3538000583648682,1972,102,64
0,FALSE,2.5999999046325684,7,8,0.5264999270439148,0,64,103,1.687999963760376,2036,103,64
0,FALSE,4.800000190734863,7,5,0.4320000410079956,1,25,104,1.4880000352859497,2061,104,64
0,TRUE,2.5999999046325684,7,6,0.3184999823570251,0,-10,105,1.6216000318527222,2051,105,64
0,TRUE,4.800000190734863,7,5,0.4320000410079956,1,-10,106,1.5213003158569336,2041,106,64
0,TRUE,2.5999999046325684,7,9,0.6499999761581421,0,-10,107,1.988300085067749,2031,107,64
0,FALSE,2.5999999046325684,7,8,0.5264999270439148,0,64,108,1.6878001689910889,2095,108,64
0,FALSE,4.800000190734863,7,5,0.4320000410079956,1,25,109,2.088399887084961,2120,109,64
0,TRUE,4.800000190734863,7,7,0.768000066,1,-10,11,2.6541006565093994,133,11,64
0,TRUE,2.5999999046325684,7,8,0.5264999270439148,0,-10,110,1.9214003086090088,2110,110,64
0,TRUE,4.800000190734863,7,6,0.5879999995231628,1,-10,111,1.955199956893921,2100,111,64
0,TRUE,2.5999999046325684,7,7,0.4160000085830688,0,-10,112,1.8215997219085691,2090,112,64
0,TRUE,4.800000190734863,7,6,0.5879999995231628,1,-10,113,1.6216002702713013,2080,113,64
0,TRUE,2.5999999046325684,7,7,0.4160000085830688,0,-10,114,1.555000066757202,2070,114,64
0,TRUE,4.800000190734863,7,6,0.5879999995231628,1,-10,115,1.587700366973877,2060,115,64
0,TRUE,4.800000190734863,7,7,0.768000066,1,-10,116,1.8551002740859983,2050,116,64
0,FALSE,4.800000190734863,7,5,0.4320000410079956,1,25,117,1.4542999267578125,2075,117,64
0,FALSE,4.800000190734863,7,5,0.4320000410079956,1,25,118,1.3210999965667725,2100,118,64
0,FALSE,2.5999999046325684,7,7,0.4160000085830688,0,49,119,2.2224998474121094,2149,119,64
0,FALSE,2.5999999046325684,7,7,0.4160000085830688,0,49,12,2.3559999465942383,182,12,64
0,TRUE,4.800000190734863,7,7,0.768000066,1,-10,120,3.4915995597839355,2139,120,64
0,TRUE,4.800000190734863,7,7,0.768000066,1,-10,13,2.2877004146575928,172,13,64
0,TRUE,2.5999999046325684,7,8,0.5264999270439148,0,-10,14,2.7213003635406494,162,14,64
0,FALSE,2.5999999046325684,7,8,0.5264999270439148,0,64,15,2.3887007236480717,226,15,64
0,FALSE,4.800000190734863,7,6,0.5879999995231628,1,36,16,1.8887001276016235,262,16,64
0,TRUE,4.800000190734863,7,6,0.5879999995231628,1,-10,17,2.088200092315674,252,17,64
0,FALSE,2.5999999046325684,7,8,0.5264999270439148,0,64,18,2.2887001037597656,316,18,64
0,FALSE,2.5999999046325684,7,7,0.4160000085830688,0,49,19,1.955100417137146,365,19,64
0,TRUE,2.5999999046325684,7,8,0.5264999270439148,0,-10,2,3.725199460983277,-20,2,64
0,TRUE,4.800000190734863,7,6,0.5879999995231628,1,-10,20,1.6547999382019043,355,20,64
0,TRUE,2.5999999046325684,7,8,0.5264999270439148,0,-10,21,2.9225997924804688,345,21,64
0,FALSE,2.5999999046325684,7,7,0.4160000085830688,0,49,22,2.355599880218506,394,22,64
0,TRUE,2.5999999046325684,7,7,0.4160000085830688,0,-10,23,2.789299964904785,384,23,64
0,FALSE,4.800000190734863,7,6,0.5879999995231628,1,36,24,2.191200256347656,420,24,64
0,FALSE,4.800000190734863,7,6,0.5879999995231628,1,36,25,1.9219001531600952,456,25,64
0,FALSE,2.5999999046325684,7,8,0.5264999270439148,0,64,26,2.2552998065948486,520,26,64
0,FALSE,4.800000190734863,7,6,0.5879999995231628,1,36,27,1.821699976921081,556,27,64
0,FALSE,4.800000190734863,7,6,0.5879999995231628,1,36,28,1.6883002519607544,592,28,64
0,FALSE,4.800000190734863,7,6,0.5879999995231628,1,36,29,1.7203998565673828,628,29,64
0,FALSE,4.800000190734863,7,6,0.5879999995231628,1,36,3,3.023299217224121,16,3,64
0,TRUE,2.5999999046325684,7,8,0.5264999270439148,0,-10,30,2.755999803543091,618,30,64
0,FALSE,2.5999999046325684,7,8,0.5264999270439148,0,64,31,2.489699602127075,682,31,64
0,TRUE,4.800000190734863,7,6,0.5879999995231628,1,-10,32,1.7218003273010254,672,32,64
0,TRUE,4.800000190734863,7,6,0.5879999995231628,1,-10,33,2.018200159072876,662,33,64
0,FALSE,4.800000190734863,7,6,0.5879999995231628,1,36,34,1.6245001554489136,698,34,64
0,TRUE,4.800000190734863,7,6,0.5879999995231628,1,-10,35,1.921700358390808,688,35,64
0,TRUE,4.800000190734863,7,6,0.5879999995231628,1,-10,36,2.1222000122070312,678,36,64
0,FALSE,4.800000190734863,7,6,0.5879999995231628,1,36,37,2.0554006099700928,714,37,64
0,TRUE,2.5999999046325684,7,7,0.4160000085830688,0,-10,38,2.4554998874664307,704,38,64
0,FALSE,2.5999999046325684,7,7,0.4160000085830688,0,49,39,2.1554999351501465,753,39,64
0,FALSE,2.5999999046325684,7,6,0.3184999823570251,0,36,4,2.488899946212769,52,4,64
0,TRUE,4.800000190734863,7,6,0.5879999995231628,1,-10,40,1.8874001502990725,743,40,64
0,FALSE,2.5999999046325684,7,7,0.4160000085830688,0,49,41,2.4227001667022705,792,41,64
0,FALSE,4.800000190734863,7,6,0.5879999995231628,1,36,42,2.4225003719329834,828,42,64
0,TRUE,2.5999999046325684,7,7,0.4160000085830688,0,-10,43,2.188300132751465,818,43,64
0,FALSE,4.800000190734863,7,6,0.5879999995231628,1,36,44,2.1217002868652344,854,44,64
0,FALSE,2.5999999046325684,7,7,0.4160000085830688,0,49,45,2.122000217437744,903,45,64
0,FALSE,4.800000190734863,7,6,0.5879999995231628,1,36,46,1.954999923706055,939,46,64
0,TRUE,2.5999999046325684,7,7,0.4160000085830688,0,-10,47,2.1882002353668213,929,47,64
0,FALSE,4.800000190734863,7,6,0.5879999995231628,1,36,48,1.6874003410339355,965,48,64
0,FALSE,2.5999999046325684,7,7,0.4160000085830688,0,49,49,1.9563000202178955,1014,49,64
0,FALSE,2.5999999046325684,7,7,0.4160000085830688,0,49,5,2.756500244140625,101,5,64
0,FALSE,2.5999999046325684,7,7,0.4160000085830688,0,49,50,2.255300760269165,1063,50,64
0,TRUE,4.800000190734863,7,6,0.5879999995231628,1,-10,51,1.6200001239776611,1053,51,64
0,FALSE,2.5999999046325684,7,7,0.4160000085830688,0,49,52,2.153900384902954,1102,52,64
0,TRUE,2.5999999046325684,7,8,0.5264999270439148,0,-10,53,2.9880990982055664,1092,53,64
0,FALSE,2.5999999046325684,7,8,0.5264999270439148,0,64,54,2.823199749,1156,54,64
0,FALSE,2.5999999046325684,7,8,0.5264999270439148,0,64,55,2.8561997413635254,1220,55,64
0,FALSE,4.800000190734863,7,6,0.5879999995231628,1,36,56,1.7216001749038696,1256,56,64
0,FALSE,2.5999999046325684,7,8,0.5264999270439148,0,64,57,2.355200290679932,1320,57,64
0,FALSE,2.5999999046325684,7,8,0.5264999270439148,0,64,58,2.221900463104248,1384,58,64
0,TRUE,4.800000190734863,7,6,0.5879999995231628,1,-10,59,1.7217005491256714,1374,59,64
0,TRUE,4.800000190734863,7,7,0.768000066,1,-10,6,2.522400140762329,91,6,64
0,TRUE,4.800000190734863,7,6,0.5879999995231628,1,-10,60,1.6885004043579102,1364,60,64
0,TRUE,4.800000190734863,7,6,0.5879999995231628,1,-10,61,1.754000186920166,1354,61,64
0,FALSE,2.5999999046325684,7,8,0.5264999270439148,0,64,62,2.188199996948242,1418,62,64
0,FALSE,2.5999999046325684,7,8,0.5264999270439148,0,64,63,3.390899896621704,1482,63,64
0,TRUE,4.800000190734863,7,6,0.5879999995231628,1,-10,64,2.022200345993042,1472,64,64
0,TRUE,2.5999999046325684,7,8,0.5264999270439148,0,-10,65,2.723400115966797,1462,65,64
0,TRUE,2.5999999046325684,7,8,0.5264999270439148,0,-10,66,2.2222001552581787,1452,66,64
0,TRUE,2.5999999046325684,7,8,0.5264999270439148,0,-10,67,1.9223003387451167,1442,67,64
0,TRUE,2.5999999046325684,7,8,0.5264999270439148,0,-10,68,1.988999843597412,1432,68,64
0,TRUE,2.5999999046325684,7,8,0.5264999270439148,0,-10,69,2.0558998584747314,1422,69,64
0,TRUE,2.5999999046325684,7,7,0.4160000085830688,0,-10,7,3.323200225830078,81,7,64
0,FALSE,2.5999999046325684,7,7,0.4160000085830688,0,49,70,1.88860023,1471,70,64
0,FALSE,2.5999999046325684,7,7,0.4160000085830688,0,49,71,1.919900059700012,1520,71,64
0,TRUE,2.5999999046325684,7,8,0.5264999270439148,0,-10,72,3.0212996006011963,1510,72,64
0,FALSE,2.5999999046325684,7,7,0.4160000085830688,0,49,73,1.854700326919556,1559,73,64
0,TRUE,4.800000190734863,7,7,0.768000066,1,-10,74,2.188999891281128,1549,74,64
0,TRUE,4.800000190734863,7,6,0.5879999995231628,1,-10,75,1.5880002975463867,1539,75,64
0,FALSE,4.800000190734863,7,5,0.4320000410079956,1,25,76,1.5546002388000488,1564,76,64
0,TRUE,4.800000190734863,7,5,0.4320000410079956,1,-10,77,1.589800238609314,1554,77,64
0,TRUE,4.800000190734863,7,6,0.5879999995231628,1,-10,78,1.5541001558303833,1544,78,64
0,FALSE,2.5999999046325684,7,7,0.4160000085830688,0,49,79,1.8220999240875244,1593,79,64
0,FALSE,4.800000190734863,7,6,0.5879999995231628,1,36,8,1.9229001998901367,117,8,64
0,FALSE,2.5999999046325684,7,7,0.4160000085830688,0,49,80,1.7552002668380735,1642,80,64
0,FALSE,2.5999999046325684,7,8,0.5264999270439148,0,64,81,2.889498710632324,1706,81,64
0,FALSE,2.5999999046325684,7,7,0.4160000085830688,0,49,82,2.123300075531006,1755,82,64
0,FALSE,2.5999999046325684,7,6,0.3184999823570251,0,36,83,2.122300386428833,1791,83,64
0,FALSE,4.800000190734863,7,4,0.3000000119209289,1,16,84,1.3879001140594482,1807,84,64
0,FALSE,4.800000190734863,7,5,0.4320000410079956,1,25,85,1.5548001527786257,1832,85,64
0,TRUE,4.800000190734863,7,6,0.5879999995231628,1,-10,86,1.7551002502441406,1822,86,64
0,TRUE,2.5999999046325684,7,8,0.5264999270439148,0,-10,87,2.2526001930236816,1812,87,64
0,TRUE,2.5999999046325684,7,8,0.5264999270439148,0,-10,88,1.5896998643875122,1802,88,64
0,TRUE,4.800000190734863,7,6,0.5879999995231628,1,-10,89,1.7211005687713623,1792,89,64
0,FALSE,4.800000190734863,7,6,0.5879999995231628,1,36,9,2.022300243377685,153,9,64
0,FALSE,4.800000190734863,7,6,0.5879999995231628,1,36,90,1.3545000553131104,1828,90,64
0,TRUE,4.800000190734863,7,6,0.5879999995231628,1,-10,91,1.888700008392334,1818,91,64
0,FALSE,4.800000190734863,7,6,0.5879999995231628,1,36,92,1.5218000411987305,1854,92,64
0,TRUE,4.800000190734863,7,6,0.5879999995231628,1,-10,93,1.5558000802993774,1844,93,64
0,FALSE,4.800000190734863,7,5,0.4320000410079956,1,25,94,1.5216000080108645,1869,94,64
0,TRUE,2.5999999046325684,7,8,0.5264999270439148,0,-10,95,2.1222002506256104,1859,95,64
0,FALSE,2.5999999046325684,7,6,0.3184999823570251,0,36,96,1.4878000020980835,1895,96,64
0,TRUE,4.800000190734863,7,5,0.4320000410079956,1,-10,97,1.5552000999450684,1885,97,64
0,TRUE,4.800000190734863,7,8,0.9719999432563782,1,-10,98,1.7544004917144775,1875,98,64
0,FALSE,2.5999999046325684,7,9,0.6499999761581421,0,81,99,2.2876999378204346,1956,99,64
0,FALSE,4.800000190734863,7,5,0.4320000410079956,1,25,1,5.603498935699463,25,1,75
0,FALSE,2.5999999046325684,7,6,0.3184999823570251,0,36,10,2.136600971221924,237,10,75
0,TRUE,4.800000190734863,7,7,0.768000066,1,-10,100,2.036200046539306,1553,100,75
0,FALSE,2.5999999046325684,7,9,0.6499999761581421,0,81,101,1.9858003854751587,1634,101,75
0,FALSE,4.800000190734863,7,5,0.4320000410079956,1,25,102,1.6513006687164309,1659,102,75
0,FALSE,2.5999999046325684,7,4,0.1624999940395355,0,16,103,2.5032002925872803,1675,103,75
0,TRUE,4.800000190734863,7,8,0.9719999432563782,1,-10,104,2.086500883102417,1665,104,75
0,TRUE,2.5999999046325684,7,6,0.3184999823570251,0,-10,105,2.620000601,1655,105,75
0,TRUE,4.800000190734863,7,5,0.4320000410079956,1,-10,106,2.4208996295928955,1645,106,75
0,FALSE,2.5999999046325684,7,5,0.2339999973773956,0,25,107,1.536900520324707,1670,107,75
0,FALSE,2.5999999046325684,7,7,0.4160000085830688,0,49,108,1.7360005378723145,1719,108,75
0,FALSE,4.800000190734863,7,5,0.4320000410079956,1,25,109,1.7205007076263428,1744,109,75
0,TRUE,4.800000190734863,7,6,0.5879999995231628,1,-10,11,1.836700439453125,227,11,75
0,TRUE,2.5999999046325684,7,9,0.6499999761581421,0,-10,110,2.051800012588501,1734,110,75
0,TRUE,4.800000190734863,7,8,0.9719999432563782,1,-10,111,1.7697010040283203,1724,111,75
0,FALSE,2.5999999046325684,7,5,0.2339999973773956,0,25,112,1.5365008115768433,1749,112,75
0,TRUE,4.800000190734863,7,5,0.4320000410079956,1,-10,113,1.9523016214370728,1739,113,75
0,TRUE,2.5999999046325684,7,8,0.5264999270439148,0,-10,114,2.219700574874878,1729,114,75
0,TRUE,4.800000190734863,7,5,0.4320000410079956,1,-10,115,1.503500223,1719,115,75
0,TRUE,4.800000190734863,7,7,0.768000066,1,-10,116,1.6364002227783203,1709,116,75
0,TRUE,4.800000190734863,7,6,0.5879999995231628,1,-10,117,2.420200348,1699,117,75
0,TRUE,4.800000190734863,7,5,0.4320000410079956,1,-10,118,1.6197006702423096,1689,118,75
0,TRUE,2.5999999046325684,7,5,0.2339999973773956,0,-10,119,3.4354989528656006,1679,119,75
0,FALSE,2.5999999046325684,7,6,0.3184999823570251,0,36,12,1.938701033592224,263,12,75
0,FALSE,4.800000190734863,7,4,0.3000000119209289,1,16,120,2.037501096725464,1695,120,75
0,TRUE,4.800000190734863,7,7,0.768000066,1,-10,13,1.9698007106781008,253,13,75
0,FALSE,2.5999999046325684,7,7,0.4160000085830688,0,49,14,1.668300747871399,302,14,75
0,FALSE,2.5999999046325684,7,6,0.3184999823570251,0,36,15,1.497100830078125,338,15,75
0,FALSE,4.800000190734863,7,6,0.5879999995231628,1,36,16,1.4701006412506104,374,16,75
0,TRUE,4.800000190734863,7,8,0.9719999432563782,1,-10,17,1.9522008895874023,364,17,75
0,TRUE,2.5999999046325684,7,6,0.3184999823570251,0,-10,18,1.7377004623413086,354,18,75
0,TRUE,2.5999999046325684,7,6,0.3184999823570251,0,-10,19,1.803000807762146,344,19,75
0,TRUE,2.5999999046325684,7,7,0.4160000085830688,0,-10,2,3.5290002822875977,15,2,75
0,FALSE,4.800000190734863,7,7,0.768000066,1,49,20,2.335800886154175,393,20,75
0,FALSE,2.5999999046325684,7,6,0.3184999823570251,0,36,21,1.619600534439087,429,21,75
0,FALSE,2.5999999046325684,7,7,0.4160000085830688,0,49,22,1.703300714492798,478,22,75
0,FALSE,2.5999999046325684,7,6,0.3184999823570251,0,36,23,1.83690083,514,23,75
0,TRUE,4.800000190734863,7,7,0.768000066,1,-10,24,1.6351009607315063,504,24,75
0,FALSE,4.800000190734863,7,6,0.5879999995231628,1,36,25,1.754201054573059,540,25,75
0,FALSE,2.5999999046325684,7,7,0.4160000085830688,0,49,26,1.4198005199432373,589,26,75
0,TRUE,4.800000190734863,7,6,0.5879999995231628,1,-10,27,1.503100872039795,579,27,75
0,TRUE,4.800000190734863,7,6,0.5879999995231628,1,-10,28,1.9222010374069212,569,28,75
0,TRUE,4.800000190734863,7,6,0.5879999995231628,1,-10,29,1.469900608062744,559,29,75
0,TRUE,4.800000190734863,7,7,0.768000066,1,-10,3,2.1045000553131104,5,3,75
0,FALSE,2.5999999046325684,7,6,0.3184999823570251,0,36,30,1.6700007915496826,595,30,75
0,FALSE,2.5999999046325684,7,7,0.4160000085830688,0,49,31,1.952601432800293,644,31,75
0,TRUE,4.800000190734863,7,6,0.5879999995231628,1,-10,32,1.6872004270553589,634,32,75
0,FALSE,4.800000190734863,7,6,0.5879999995231628,1,36,33,1.5695005655288696,670,33,75
0,FALSE,4.800000190734863,7,5,0.4320000410079956,1,25,34,3.653498411178589,695,34,75
0,TRUE,4.800000190734863,7,7,0.768000066,1,-10,35,1.7034008502960205,685,35,75
0,TRUE,4.800000190734863,7,6,0.5879999995231628,1,-10,36,2.6169002056121826,675,36,75
0,TRUE,4.800000190734863,7,5,0.4320000410079956,1,-10,37,2.504199981689453,665,37,75
0,FALSE,2.5999999046325684,7,6,0.3184999823570251,0,36,38,1.7533003091812134,701,38,75
0,TRUE,2.5999999046325684,7,8,0.5264999270439148,0,-10,39,2.552300453186035,691,39,75
0,FALSE,2.5999999046325684,7,5,0.2339999973773956,0,25,4,1.6057008504867554,30,4,75
0,TRUE,4.800000190734863,7,8,0.9719999432563782,1,-10,40,2.436300039291382,681,40,75
0,FALSE,2.5999999046325684,7,7,0.4160000085830688,0,49,41,1.7872004508972168,730,41,75
0,TRUE,4.800000190734863,7,7,0.768000066,1,-10,42,1.7535003423690796,720,42,75
0,FALSE,2.5999999046325684,7,9,0.6499999761581421,0,81,43,2.834899902,801,43,75
0,TRUE,4.800000190734863,7,6,0.5879999995231628,1,-10,44,1.3024005889892578,791,44,75
0,FALSE,2.5999999046325684,7,7,0.4160000085830688,0,49,45,1.834600567817688,840,45,75
0,TRUE,4.800000190734863,7,6,0.5879999995231628,1,-10,46,1.8203004598617556,830,46,75
0,FALSE,2.5999999046325684,7,6,0.3184999823570251,0,36,47,2.0370001792907715,866,47,75
0,FALSE,4.800000190734863,7,5,0.4320000410079956,1,25,48,2.602900743484497,891,48,75
0,FALSE,2.5999999046325684,7,5,0.2339999973773956,0,25,49,2.235801219940185,916,49,75
0,FALSE,2.5999999046325684,7,5,0.2339999973773956,0,25,5,2.9866983890533447,55,5,75
0,TRUE,2.5999999046325684,7,6,0.3184999823570251,0,-10,50,1.569400191307068,906,50,75
0,TRUE,4.800000190734863,7,6,0.5879999995231628,1,-10,51,1.718600511550903,896,51,75
0,FALSE,2.5999999046325684,7,5,0.2339999973773956,0,25,52,1.7515010833740234,921,52,75
0,FALSE,2.5999999046325684,7,6,0.3184999823570251,0,36,53,1.6372007131576538,957,53,75
0,FALSE,2.5999999046325684,7,6,0.3184999823570251,0,36,54,2.120001077651977,993,54,75
0,TRUE,2.5999999046325684,7,5,0.2339999973773956,0,-10,55,2.5218002796173096,983,55,75
0,TRUE,4.800000190734863,7,5,0.4320000410079956,1,-10,56,1.4703004360198977,973,56,75
0,FALSE,2.5999999046325684,7,6,0.3184999823570251,0,36,57,1.772500753,1009,57,75
0,TRUE,2.5999999046325684,7,8,0.5264999270439148,0,-10,58,1.936700701713562,999,58,75
0,FALSE,4.800000190734863,7,5,0.4320000410079956,1,25,59,1.4847005605697632,1024,59,75
0,FALSE,4.800000190734863,7,6,0.5879999995231628,1,36,6,2.486700296401977,91,6,75
0,TRUE,4.800000190734863,7,7,0.768000066,1,-10,60,1.788201093673706,1014,60,75
0,FALSE,4.800000190734863,7,6,0.5879999995231628,1,36,61,1.8867008686065676,1050,61,75
0,TRUE,2.5999999046325684,7,8,0.5264999270439148,0,-10,62,2.6531994342803955,1040,62,75
0,TRUE,2.5999999046325684,7,7,0.4160000085830688,0,-10,63,1.7347004413604736,1030,63,75
0,TRUE,4.800000190734863,7,9,1.2000000476837158,1,-10,64,2.2855007648468018,1020,64,75
0,FALSE,2.5999999046325684,7,5,0.2339999973773956,0,25,65,1.8186008930206297,1045,65,75
0,FALSE,2.5999999046325684,7,6,0.3184999823570251,0,36,66,1.4690004587173462,1081,66,75
0,FALSE,2.5999999046325684,7,8,0.5264999270439148,0,64,67,2.203601598739624,1145,67,75
0,FALSE,2.5999999046325684,7,6,0.3184999823570251,0,36,68,1.7525006532669067,1181,68,75
0,FALSE,2.5999999046325684,7,5,0.2339999973773956,0,25,69,1.553400635719299,1206,69,75
0,FALSE,2.5999999046325684,7,5,0.2339999973773956,0,25,7,2.386300563812256,116,7,75
0,FALSE,2.5999999046325684,7,7,0.4160000085830688,0,49,70,1.8022007942199707,1255,70,75
0,TRUE,2.5999999046325684,7,9,0.6499999761581421,0,-10,71,2.0198006629943848,1245,71,75
0,TRUE,2.5999999046325684,7,6,0.3184999823570251,0,-10,72,1.5695006847381592,1235,72,75
0,FALSE,2.5999999046325684,7,5,0.2339999973773956,0,25,73,2.370100498199463,1260,73,75
0,FALSE,4.800000190734863,7,5,0.4320000410079956,1,25,74,1.7533009052276611,1285,74,75
0,TRUE,4.800000190734863,7,7,0.768000066,1,-10,75,1.7868008613586426,1275,75,75
0,TRUE,4.800000190734863,7,6,0.5879999995231628,1,-10,76,1.6027007102966309,1265,76,75
0,TRUE,4.800000190734863,7,5,0.4320000410079956,1,-10,77,1.269800305366516,1255,77,75
0,TRUE,4.800000190734863,7,8,0.9719999432563782,1,-10,78,1.886901378631592,1245,78,75
0,FALSE,2.5999999046325684,7,4,0.1624999940395355,0,16,79,1.2363004684448242,1261,79,75
0,FALSE,4.800000190734863,7,7,0.768000066,1,49,8,1.8036000728607176,165,8,75
0,FALSE,2.5999999046325684,7,5,0.2339999973773956,0,25,80,1.1028002500534058,1286,80,75
0,FALSE,2.5999999046325684,7,7,0.4160000085830688,0,49,81,1.820200800895691,1335,81,75
0,FALSE,2.5999999046325684,7,6,0.3184999823570251,0,36,82,1.4694007635116575,1371,82,75
0,FALSE,2.5999999046325684,7,5,0.2339999973773956,0,25,83,1.3700004816055298,1396,83,75
0,TRUE,4.800000190734863,7,9,1.2000000476837158,1,-10,84,1.8866013288497925,1386,84,75
0,TRUE,4.800000190734863,7,6,0.5879999995231628,1,-10,85,1.3867006301879885,1376,85,75
0,FALSE,4.800000190734863,7,4,0.3000000119209289,1,16,86,1.203400731086731,1392,86,75
0,FALSE,2.5999999046325684,7,5,0.2339999973773956,0,25,87,2.3039004802703857,1417,87,75
0,FALSE,2.5999999046325684,7,7,0.4160000085830688,0,49,88,2.553500175476074,1466,88,75
0,TRUE,4.800000190734863,7,5,0.4320000410079956,1,-10,89,1.4861007928848269,1456,89,75
0,FALSE,4.800000190734863,7,6,0.5879999995231628,1,36,9,2.3567006587982178,201,9,75
0,FALSE,4.800000190734863,7,5,0.4320000410079956,1,25,90,1.552900791168213,1481,90,75
0,TRUE,4.800000190734863,7,7,0.768000066,1,-10,91,1.803501009941101,1471,91,75
0,FALSE,4.800000190734863,7,6,0.5879999995231628,1,36,92,1.5202008485794067,1507,92,75
0,TRUE,4.800000190734863,7,5,0.4320000410079956,1,-10,93,1.6865007877349854,1497,93,75
0,FALSE,4.800000190734863,7,4,0.3000000119209289,1,16,94,1.0875004529953003,1513,94,75
0,TRUE,2.5999999046325684,7,8,0.5264999270439148,0,-10,95,2.7038004398345947,1503,95,75
0,FALSE,2.5999999046325684,7,5,0.2339999973773956,0,25,96,1.086500049,1528,96,75
0,TRUE,4.800000190734863,7,5,0.4320000410079956,1,-10,97,1.470200538635254,1518,97,75
0,FALSE,4.800000190734863,7,3,0.1920000165700912,1,9,98,1.3228999376296997,1527,98,75
0,FALSE,2.5999999046325684,7,6,0.3184999823570251,0,36,99,1.6366002559661863,1563,99,75
0,FALSE,4.800000190734863,7,5,0.4320000410079956,1,25,1,14.222000122070312,25,1,38
0,TRUE,2.5999999046325684,7,9,0.6499999761581421,0,-10,10,2.299400568008423,118,10,38
0,FALSE,4.800000190734863,7,5,0.4320000410079956,1,25,100,3.5578999519348145,1538,100,38
0,TRUE,2.5999999046325684,7,9,0.6499999761581421,0,-10,101,19.03879165649414,1528,101,38
0,FALSE,4.800000190734863,7,7,0.768000066,1,49,102,23.082813262939453,1577,102,38
0,TRUE,2.5999999046325684,7,9,0.6499999761581421,0,-10,103,3.9573004245758057,1567,103,38
0,TRUE,4.800000190734863,7,9,1.2000000476837158,1,-10,104,3.401400327682495,1557,104,38
0,FALSE,2.5999999046325684,7,6,0.3184999823570251,0,36,105,2.901899814605713,1593,105,38
0,FALSE,4.800000190734863,7,3,0.1920000165700912,1,9,106,2.0203990936279297,1602,106,38
0,FALSE,2.5999999046325684,7,7,0.4160000085830688,0,49,107,4.600196361541748,1651,107,38
0,FALSE,2.5999999046325684,7,7,0.4160000085830688,0,49,108,2.948699951171875,1700,108,38
0,TRUE,4.800000190734863,7,9,1.2000000476837158,1,-10,109,3.837699652,1690,109,38
0,TRUE,4.800000190734863,7,9,1.2000000476837158,1,-10,11,2.4923994541168213,108,11,38
0,TRUE,2.5999999046325684,7,9,0.6499999761581421,0,-10,110,2.7034003734588623,1680,110,38
0,TRUE,4.800000190734863,7,5,0.4320000410079956,1,-10,111,1.481800198554993,1670,111,38
0,FALSE,2.5999999046325684,7,6,0.3184999823570251,0,36,112,1.7251005172729492,1706,112,38
0,FALSE,4.800000190734863,7,5,0.4320000410079956,1,25,113,1.9753001928329468,1731,113,38
0,TRUE,2.5999999046325684,7,8,0.5264999270439148,0,-10,114,3.453499317169189,1721,114,38
0,TRUE,4.800000190734863,7,6,0.5879999995231628,1,-10,115,2.604100465774536,1711,115,38
0,FALSE,4.800000190734863,7,2,0,1,4,116,0.930899978,1715,116,38
0,FALSE,4.800000190734863,7,5,0.4320000410079956,1,25,117,1.530199646949768,1740,117,38
0,FALSE,4.800000190734863,7,4,0.3000000119209289,1,16,118,5.244800567626953,1756,118,38
0,FALSE,2.5999999046325684,7,7,0.4160000085830688,0,49,119,4.529300212860107,1805,119,38
0,FALSE,2.5999999046325684,7,6,0.3184999823570251,0,36,12,1.446200251579285,144,12,38
0,TRUE,4.800000190734863,7,4,0.3000000119209289,1,-10,120,3.364300251,1795,120,38
0,FALSE,4.800000190734863,7,5,0.4320000410079956,1,25,13,1.3080999851226809,169,13,38
0,FALSE,2.5999999046325684,7,3,0.1040000021457672,0,9,14,1.3564999103546145,178,14,38
0,FALSE,2.5999999046325684,7,4,0.1624999940395355,0,16,15,1.0522998571395874,194,15,38
0,TRUE,4.800000190734863,7,3,0.1920000165700912,1,-10,16,0.8508998155593872,184,16,38
0,TRUE,4.800000190734863,7,7,0.768000066,1,-10,17,2.026599884033203,174,17,38
0,FALSE,2.5999999046325684,7,3,0.1040000021457672,0,9,18,0.9970999360084534,183,18,38
0,FALSE,2.5999999046325684,7,3,0.1040000021457672,0,9,19,0.8477000594139099,192,19,38
0,TRUE,2.5999999046325684,7,8,0.5264999270439148,0,-10,2,6.219695568084717,15,2,38
0,FALSE,4.800000190734863,7,1,0,1,1,20,0.9690998792648317,193,20,38
0,FALSE,2.5999999046325684,7,1,0,0,1,21,0.5219999551773071,194,21,38
0,FALSE,2.5999999046325684,7,1,0,0,1,22,5.768598556518555,195,22,38
0,FALSE,2.5999999046325684,7,3,0.1040000021457672,0,9,23,1.5035001039505005,204,23,38
0,FALSE,4.800000190734863,7,1,0,1,1,24,1.5467002391815186,205,24,38
0,TRUE,4.800000190734863,7,4,0.3000000119209289,1,-10,25,2.153399705886841,195,25,38
0,FALSE,2.5999999046325684,7,1,0,0,1,26,1.475099802017212,196,26,38
0,FALSE,4.800000190734863,7,3,0.1920000165700912,1,9,27,1.256500005722046,205,27,38
0,FALSE,4.800000190734863,7,6,0.5879999995231628,1,36,28,2.089400291442871,241,28,38
0,FALSE,4.800000190734863,7,1,0,1,1,29,1.196600079536438,242,29,38
0,TRUE,4.800000190734863,7,8,0.9719999432563782,1,-10,3,8.214401245117188,5,3,38
0,FALSE,2.5999999046325684,7,4,0.1624999940395355,0,16,30,2.1237998008728027,258,30,38
0,FALSE,2.5999999046325684,7,4,0.1624999940395355,0,16,31,2.0374996662139893,274,31,38
0,FALSE,4.800000190734863,7,4,0.3000000119209289,1,16,32,1.4276002645492554,290,32,38
0,FALSE,4.800000190734863,7,1,0,1,1,33,0.933199942,291,33,38
0,TRUE,4.800000190734863,7,5,0.4320000410079956,1,-10,34,1.4878000020980835,281,34,38
0,TRUE,4.800000190734863,7,4,0.3000000119209289,1,-10,35,1.238399863243103,271,35,38
0,FALSE,4.800000190734863,7,1,0,1,1,36,0.8474001884460449,272,36,38
0,FALSE,4.800000190734863,7,3,0.1920000165700912,1,9,37,5.937999248504639,281,37,38
0,TRUE,2.5999999046325684,7,9,0.6499999761581421,0,-10,38,3.1324996948242188,271,38,38
0,TRUE,2.5999999046325684,7,9,0.6499999761581421,0,-10,39,6.772696495056152,261,39,38
0,FALSE,2.5999999046325684,7,6,0.3184999823570251,0,36,4,3.643999099731445,41,4,38
0,FALSE,4.800000190734863,7,6,0.5879999995231628,1,36,40,1.6290000677108765,297,40,38
0,FALSE,2.5999999046325684,7,5,0.2339999973773956,0,25,41,1.2689002752304075,322,41,38
0,FALSE,4.800000190734863,7,1,0,1,1,42,0.7354999780654907,323,42,38
0,FALSE,2.5999999046325684,7,6,0.3184999823570251,0,36,43,2.6518001556396484,359,43,38
0,TRUE,4.800000190734863,7,4,0.3000000119209289,1,-10,44,1.463900089263916,349,44,38
0,FALSE,2.5999999046325684,7,9,0.6499999761581421,0,81,45,2.395599603652954,430,45,38
0,FALSE,4.800000190734863,7,5,0.4320000410079956,1,25,46,1.454700231552124,455,46,38
0,FALSE,2.5999999046325684,7,1,0,0,1,47,0.8751999735832214,456,47,38
0,FALSE,4.800000190734863,7,3,0.1920000165700912,1,9,48,1.990299940109253,465,48,38
0,FALSE,2.5999999046325684,7,6,0.3184999823570251,0,36,49,2.1809003353118896,501,49,38
0,FALSE,2.5999999046325684,7,6,0.3184999823570251,0,36,5,3.0137996673583984,77,5,38
0,FALSE,2.5999999046325684,7,5,0.2339999973773956,0,25,50,1.714499831199646,526,50,38
0,FALSE,4.800000190734863,7,3,0.1920000165700912,1,9,51,2.2030999660491943,535,51,38
0,FALSE,2.5999999046325684,7,7,0.4160000085830688,0,49,52,4.619600772857666,584,52,38
0,TRUE,2.5999999046325684,7,5,0.2339999973773956,0,-10,53,1.972000002861023,574,53,38
0,TRUE,2.5999999046325684,7,9,0.6499999761581421,0,-10,54,2.232799530029297,564,54,38
0,TRUE,2.5999999046325684,7,9,0.6499999761581421,0,-10,55,2.282600164413452,554,55,38
0,FALSE,4.800000190734863,7,7,0.768000066,1,49,56,2.304699659347534,603,56,38
0,TRUE,2.5999999046325684,7,4,0.1624999940395355,0,-10,57,1.6119003295898438,593,57,38
0,FALSE,2.5999999046325684,7,9,0.6499999761581421,0,81,58,3.372299194335937,674,58,38
0,TRUE,4.800000190734863,7,3,0.1920000165700912,1,-10,59,2.638200283050537,664,59,38
0,TRUE,4.800000190734863,7,5,0.4320000410079956,1,-10,6,1.8640003204345703,67,6,38
0,FALSE,4.800000190734863,7,1,0,1,1,60,1.2934999465942385,665,60,38
0,FALSE,4.800000190734863,7,1,0,1,1,61,1.075700044631958,666,61,38
0,TRUE,2.5999999046325684,7,9,0.6499999761581421,0,-10,62,3.353299379348755,656,62,38
0,FALSE,2.5999999046325684,7,7,0.4160000085830688,0,49,63,1.7941999435424805,705,63,38
0,FALSE,4.800000190734863,7,3,0.1920000165700912,1,9,64,1.0066999197006226,714,64,38
0,TRUE,2.5999999046325684,7,6,0.3184999823570251,0,-10,65,2.471199512481689,704,65,38
0,TRUE,2.5999999046325684,7,9,0.6499999761581421,0,-10,66,3.256599903106689,694,66,38
0,TRUE,2.5999999046325684,7,9,0.6499999761581421,0,-10,67,2.5682005882263184,684,67,38
0,FALSE,2.5999999046325684,7,6,0.3184999823570251,0,36,68,1.8528996706008911,720,68,38
0,FALSE,2.5999999046325684,7,4,0.1624999940395355,0,16,69,1.373299479484558,736,69,38
0,FALSE,2.5999999046325684,7,9,0.6499999761581421,0,81,7,2.5368003845214844,148,7,38
0,TRUE,2.5999999046325684,7,4,0.1624999940395355,0,-10,70,1.264500379562378,726,70,38
0,FALSE,2.5999999046325684,7,7,0.4160000085830688,0,49,71,1.6730000972747805,775,71,38
0,FALSE,2.5999999046325684,7,6,0.3184999823570251,0,36,72,1.5770994424819946,811,72,38
0,TRUE,2.5999999046325684,7,9,0.6499999761581421,0,-10,73,68.48395538330078,801,73,38
0,FALSE,4.800000190734863,7,5,0.4320000410079956,1,25,74,26.90197182,826,74,38
0,TRUE,4.800000190734863,7,9,1.2000000476837158,1,-10,75,8.317497253417969,816,75,38
0,FALSE,4.800000190734863,7,5,0.4320000410079956,1,25,76,11.781304359436035,841,76,38
0,FALSE,4.800000190734863,7,5,0.4320000410079956,1,25,77,24.162057876586918,866,77,38
0,FALSE,4.800000190734863,7,6,0.5879999995231628,1,36,78,4.677700042724609,902,78,38
0,FALSE,2.5999999046325684,7,7,0.4160000085830688,0,49,79,35.40147781,951,79,38
0,TRUE,4.800000190734863,7,7,0.768000066,1,-10,8,10.052603721618652,138,8,38
0,FALSE,2.5999999046325684,7,9,0.6499999761581421,0,81,80,5.907001495361328,1032,80,38
0,TRUE,2.5999999046325684,7,4,0.1624999940395355,0,-10,81,2.336900234222412,1022,81,38
0,FALSE,2.5999999046325684,7,7,0.4160000085830688,0,49,82,13.52460765838623,1071,82,38
0,FALSE,2.5999999046325684,7,7,0.4160000085830688,0,49,83,17.12249755859375,1120,83,38
0,TRUE,4.800000190734863,7,8,0.9719999432563782,1,-10,84,5.256700516,1110,84,38
0,FALSE,4.800000190734863,7,7,0.768000066,1,49,85,30.536396026611328,1159,85,38
0,TRUE,4.800000190734863,7,7,0.768000066,1,-10,86,24.660789489746094,1149,86,38
0,FALSE,2.5999999046325684,7,6,0.3184999823570251,0,36,87,7.352095603942871,1185,87,38
0,FALSE,2.5999999046325684,7,9,0.6499999761581421,0,81,88,12.54061222076416,1266,88,38
0,FALSE,4.800000190734863,7,5,0.4320000410079956,1,25,89,5.337498664855957,1291,89,38
0,TRUE,4.800000190734863,7,9,1.2000000476837158,1,-10,9,8.889296531677246,128,9,38
0,FALSE,4.800000190734863,7,5,0.4320000410079956,1,25,90,3.713898181915283,1316,90,38
0,FALSE,4.800000190734863,7,5,0.4320000410079956,1,25,91,3.5365002155303955,1341,91,38
0,FALSE,4.800000190734863,7,5,0.4320000410079956,1,25,92,6.702997207641602,1366,92,38
0,TRUE,4.800000190734863,7,5,0.4320000410079956,1,-10,93,3.738900423049927,1356,93,38
0,TRUE,4.800000190734863,7,5,0.4320000410079956,1,-10,94,22.292282104492188,1346,94,38
0,TRUE,2.5999999046325684,7,9,0.6499999761581421,0,-10,95,10.38590145111084,1336,95,38
0,FALSE,2.5999999046325684,7,9,0.6499999761581421,0,81,96,8.544095993041992,1417,96,38
0,TRUE,4.800000190734863,7,6,0.5879999995231628,1,-10,97,11.951396942138672,1407,97,38
0,FALSE,4.800000190734863,7,5,0.4320000410079956,1,25,98,2.727299451828003,1432,98,38
0,FALSE,2.5999999046325684,7,9,0.6499999761581421,0,81,99,5.189301968,1513,99,38
0,TRUE,4.800000190734863,7,8,0.9719999432563782,1,-10,1,5.268795967102051,-10,1,65
0,TRUE,2.5999999046325684,7,3,0.1040000021457672,0,-10,10,1.3368000984191897,-20,10,65
0,FALSE,4.800000190734863,7,3,0.1920000165700912,1,9,100,1.538299560546875,683,100,65
0,FALSE,2.5999999046325684,7,3,0.1040000021457672,0,9,101,1.7869995832443235,692,101,65
0,FALSE,4.800000190734863,7,3,0.1920000165700912,1,9,102,1.1080999374389648,701,102,65
0,FALSE,2.5999999046325684,7,4,0.1624999940395355,0,16,103,1.468600153923035,717,103,65
0,FALSE,4.800000190734863,7,3,0.1920000165700912,1,9,104,1.4859997034072876,726,104,65
0,FALSE,2.5999999046325684,7,5,0.2339999973773956,0,25,105,1.684499740600586,751,105,65
0,FALSE,4.800000190734863,7,3,0.1920000165700912,1,9,106,1.519599676132202,760,106,65
0,TRUE,2.5999999046325684,7,7,0.4160000085830688,0,-10,107,1.8688994646072388,750,107,65
0,FALSE,2.5999999046325684,7,5,0.2339999973773956,0,25,108,3.369999647140503,775,108,65
0,FALSE,4.800000190734863,7,3,0.1920000165700912,1,9,109,1.669899582862854,784,109,65
0,FALSE,4.800000190734863,7,2,0,1,4,11,1.0033999681472778,-16,11,65
0,FALSE,2.5999999046325684,7,5,0.2339999973773956,0,25,110,3.618698120117188,809,110,65
0,FALSE,4.800000190734863,7,3,0.1920000165700912,1,9,111,3.619098186,818,111,65
0,FALSE,2.5999999046325684,7,5,0.2339999973773956,0,25,112,1.854999303817749,843,112,65
0,FALSE,4.800000190734863,7,3,0.1920000165700912,1,9,113,1.4020997285842896,852,113,65
0,TRUE,2.5999999046325684,7,5,0.2339999973773956,0,-10,114,1.7221001386642456,842,114,65
0,FALSE,4.800000190734863,7,3,0.1920000165700912,1,9,115,2.2188990116119385,851,115,65
0,FALSE,4.800000190734863,7,3,0.1920000165700912,1,9,116,1.7366995811462402,860,116,65
0,TRUE,4.800000190734863,7,3,0.1920000165700912,1,-10,117,1.9036996364593504,850,117,65
0,FALSE,4.800000190734863,7,3,0.1920000165700912,1,9,118,12.235827445983888,859,118,65
0,FALSE,2.5999999046325684,7,3,0.1040000021457672,0,9,119,2.5672996044158936,868,119,65
0,FALSE,2.5999999046325684,7,3,0.1040000021457672,0,9,12,1.585999608039856,-7,12,65
0,TRUE,4.800000190734863,7,3,0.1920000165700912,1,-10,120,1.752499819,858,120,65
0,FALSE,4.800000190734863,7,3,0.1920000165700912,1,9,13,1.0678999423980713,2,13,65
0,FALSE,2.5999999046325684,7,3,0.1040000021457672,0,9,14,1.0195999145507812,11,14,65
0,FALSE,2.5999999046325684,7,3,0.1040000021457672,0,9,15,0.9861000180244446,20,15,65
0,FALSE,4.800000190734863,7,3,0.1920000165700912,1,9,16,0.9697999954223632,29,16,65
0,FALSE,4.800000190734863,7,3,0.1920000165700912,1,9,17,0.8866001963615417,38,17,65
0,FALSE,2.5999999046325684,7,4,0.1624999940395355,0,16,18,1.1874001026153564,54,18,65
0,TRUE,2.5999999046325684,7,4,0.1624999940395355,0,-10,19,1.1686999797821045,44,19,65
0,FALSE,2.5999999046325684,7,5,0.2339999973773956,0,25,2,2.379599094390869,15,2,65
0,FALSE,4.800000190734863,7,3,0.1920000165700912,1,9,20,0.9024000763893129,53,20,65
0,FALSE,2.5999999046325684,7,3,0.1040000021457672,0,9,21,0.922100067,62,21,65
0,FALSE,2.5999999046325684,7,4,0.1624999940395355,0,16,22,1.4543997049331665,78,22,65
0,FALSE,2.5999999046325684,7,4,0.1624999940395355,0,16,23,1.4688999652862549,94,23,65
0,FALSE,4.800000190734863,7,4,0.3000000119209289,1,16,24,1.5374999046325684,110,24,65
0,FALSE,4.800000190734863,7,5,0.4320000410079956,1,25,25,1.3869998455047607,135,25,65
0,FALSE,2.5999999046325684,7,5,0.2339999973773956,0,25,26,1.7367998361587524,160,26,65
0,TRUE,4.800000190734863,7,8,0.9719999432563782,1,-10,27,1.9520999193191528,150,27,65
0,FALSE,4.800000190734863,7,4,0.3000000119209289,1,16,28,1.419699788093567,166,28,65
0,TRUE,4.800000190734863,7,4,0.3000000119209289,1,-10,29,1.1537001132965088,156,29,65
0,TRUE,4.800000190734863,7,5,0.4320000410079956,1,-10,3,2.054199457168579,5,3,65
0,FALSE,2.5999999046325684,7,1,0,0,1,30,0.6379998922348022,157,30,65
0,FALSE,2.5999999046325684,7,4,0.1624999940395355,0,16,31,1.435599923,173,31,65
0,FALSE,4.800000190734863,7,5,0.4320000410079956,1,25,32,1.752800226211548,198,32,65
0,TRUE,4.800000190734863,7,5,0.4320000410079956,1,-10,33,2.118499517440796,188,33,65
0,FALSE,4.800000190734863,7,3,0.1920000165700912,1,9,34,1.6203997135162354,197,34,65
0,FALSE,4.800000190734863,7,4,0.3000000119209289,1,16,35,1.9700994491577148,213,35,65
0,FALSE,4.800000190734863,7,4,0.3000000119209289,1,16,36,1.669399976730347,229,36,65
0,TRUE,4.800000190734863,7,6,0.5879999995231628,1,-10,37,1.8356996774673464,219,37,65
0,TRUE,2.5999999046325684,7,5,0.2339999973773956,0,-10,38,2.002699851989746,209,38,65
0,TRUE,2.5999999046325684,7,4,0.1624999940395355,0,-10,39,1.368499994277954,199,39,65
0,TRUE,2.5999999046325684,7,9,0.6499999761581421,0,-10,4,2.568798780441284,-5,4,65
0,TRUE,4.800000190734863,7,4,0.3000000119209289,1,-10,40,1.1354999542236328,189,40,65
0,FALSE,2.5999999046325684,7,3,0.1040000021457672,0,9,41,1.3868001699447632,198,41,65
0,FALSE,4.800000190734863,7,3,0.1920000165700912,1,9,42,2.0186996459960938,207,42,65
0,FALSE,2.5999999046325684,7,3,0.1040000021457672,0,9,43,1.6213997602462769,216,43,65
0,FALSE,4.800000190734863,7,3,0.1920000165700912,1,9,44,1.570199728012085,225,44,65
0,FALSE,2.5999999046325684,7,3,0.1040000021457672,0,9,45,1.3194998502731323,234,45,65
0,FALSE,4.800000190734863,7,3,0.1920000165700912,1,9,46,1.603299856185913,243,46,65
0,FALSE,2.5999999046325684,7,4,0.1624999940395355,0,16,47,1.851999282836914,259,47,65
0,FALSE,4.800000190734863,7,4,0.3000000119209289,1,16,48,1.8538994789123533,275,48,65
0,FALSE,2.5999999046325684,7,4,0.1624999940395355,0,16,49,2.235898971557617,291,49,65
0,TRUE,2.5999999046325684,7,7,0.4160000085830688,0,-10,5,2.5189998149871826,-15,5,65
0,FALSE,2.5999999046325684,7,4,0.1624999940395355,0,16,50,1.819199562072754,307,50,65
0,FALSE,4.800000190734863,7,4,0.3000000119209289,1,16,51,1.7357999086380005,323,51,65
0,FALSE,2.5999999046325684,7,4,0.1624999940395355,0,16,52,1.602599859237671,339,52,65
0,FALSE,2.5999999046325684,7,4,0.1624999940395355,0,16,53,1.519900084,355,53,65
0,TRUE,2.5999999046325684,7,4,0.1624999940395355,0,-10,54,2.5044994354248047,345,54,65
0,FALSE,2.5999999046325684,7,3,0.1040000021457672,0,9,55,2.069499015808105,354,55,65
0,FALSE,4.800000190734863,7,3,0.1920000165700912,1,9,56,1.1863996982574463,363,56,65
0,FALSE,2.5999999046325684,7,4,0.1624999940395355,0,16,57,1.503000020980835,379,57,65
0,FALSE,2.5999999046325684,7,4,0.1624999940395355,0,16,58,1.7215996980667114,395,58,65
0,FALSE,4.800000190734863,7,4,0.3000000119209289,1,16,59,1.5709996223449707,411,59,65
0,FALSE,4.800000190734863,7,3,0.1920000165700912,1,9,6,1.1378998756408691,-6,6,65
0,FALSE,4.800000190734863,7,3,0.1920000165700912,1,9,60,1.9860992431640625,420,60,65
0,FALSE,4.800000190734863,7,4,0.3000000119209289,1,16,61,1.4373996257781982,436,61,65
0,FALSE,2.5999999046325684,7,4,0.1624999940395355,0,16,62,1.437800049781799,452,62,65
0,TRUE,2.5999999046325684,7,5,0.2339999973773956,0,-10,63,1.9026991128921509,442,63,65
0,TRUE,4.800000190734863,7,4,0.3000000119209289,1,-10,64,1.6522997617721558,432,64,65
0,FALSE,2.5999999046325684,7,3,0.1040000021457672,0,9,65,1.0678999423980713,441,65,65
0,TRUE,2.5999999046325684,7,4,0.1624999940395355,0,-10,66,1.3370996713638306,431,66,65
0,FALSE,2.5999999046325684,7,2,0,0,4,67,1.369400143623352,435,67,65
0,FALSE,2.5999999046325684,7,3,0.1040000021457672,0,9,68,1.3190996646881104,444,68,65
0,FALSE,2.5999999046325684,7,3,0.1040000021457672,0,9,69,1.487199783325195,453,69,65
0,FALSE,2.5999999046325684,7,4,0.1624999940395355,0,16,7,2.035399436950684,10,7,65
0,TRUE,2.5999999046325684,7,3,0.1040000021457672,0,-10,70,1.6379997730255127,443,70,65
0,FALSE,2.5999999046325684,7,2,0,0,4,71,1.2862000465393066,447,71,65
0,FALSE,2.5999999046325684,7,3,0.1040000021457672,0,9,72,1.2375998497009275,456,72,65
0,FALSE,2.5999999046325684,7,3,0.1040000021457672,0,9,73,1.1375999450683594,465,73,65
0,FALSE,4.800000190734863,7,3,0.1920000165700912,1,9,74,1.568799614906311,474,74,65
0,FALSE,4.800000190734863,7,3,0.1920000165700912,1,9,75,4.168700695037842,483,75,65
0,FALSE,4.800000190734863,7,4,0.3000000119209289,1,16,76,1.4693996906280518,499,76,65
0,FALSE,4.800000190734863,7,4,0.3000000119209289,1,16,77,1.687099814414978,515,77,65
0,FALSE,4.800000190734863,7,4,0.3000000119209289,1,16,78,2.787299871444702,531,78,65
0,FALSE,2.5999999046325684,7,4,0.1624999940395355,0,16,79,1.9359995126724243,547,79,65
0,TRUE,4.800000190734863,7,5,0.4320000410079956,1,-10,8,2.103299617767334,0,8,65
0,FALSE,2.5999999046325684,7,4,0.1624999940395355,0,16,80,1.9546995162963867,563,80,65
0,FALSE,2.5999999046325684,7,4,0.1624999940395355,0,16,81,1.402499437332153,579,81,65
0,TRUE,2.5999999046325684,7,4,0.1624999940395355,0,-10,82,1.768999457359314,569,82,65
0,FALSE,2.5999999046325684,7,3,0.1040000021457672,0,9,83,1.318899631500244,578,83,65
0,FALSE,4.800000190734863,7,3,0.1920000165700912,1,9,84,1.4693995714187622,587,84,65
0,FALSE,4.800000190734863,7,3,0.1920000165700912,1,9,85,1.6032994985580444,596,85,65
0,FALSE,4.800000190734863,7,4,0.3000000119209289,1,16,86,2.652498960494995,612,86,65
0,FALSE,2.5999999046325684,7,3,0.1040000021457672,0,9,87,1.5521999597549438,621,87,65
0,FALSE,2.5999999046325684,7,4,0.1624999940395355,0,16,88,1.5370993614196775,637,88,65
0,FALSE,4.800000190734863,7,4,0.3000000119209289,1,16,89,2.004099607467652,653,89,65
0,TRUE,4.800000190734863,7,4,0.3000000119209289,1,-10,9,1.587399721,-10,9,65
0,TRUE,4.800000190734863,7,4,0.3000000119209289,1,-10,90,1.7863999605178833,643,90,65
0,FALSE,4.800000190734863,7,3,0.1920000165700912,1,9,91,1.2864995002746582,652,91,65
0,FALSE,4.800000190734863,7,3,0.1920000165700912,1,9,92,1.2050997018814087,661,92,65
0,TRUE,4.800000190734863,7,3,0.1920000165700912,1,-10,93,1.2875999212265017,651,93,65
0,FALSE,4.800000190734863,7,3,0.1920000165700912,1,9,94,2.044699192047119,660,94,65
0,FALSE,2.5999999046325684,7,3,0.1040000021457672,0,9,95,1.7532999515533447,669,95,65
0,FALSE,2.5999999046325684,7,4,0.1624999940395355,0,16,96,1.4543997049331665,685,96,65
0,TRUE,4.800000190734863,7,4,0.3000000119209289,1,-10,97,1.8861992359161377,675,97,65
0,FALSE,4.800000190734863,7,3,0.1920000165700912,1,9,98,1.4516998529434204,684,98,65
0,TRUE,2.5999999046325684,7,4,0.1624999940395355,0,-10,99,1.6533993482589722,674,99,65
0,TRUE,4.800000190734863,7,3,0.1920000165700912,1,-10,1,7.530693054199219,-10,1,48
0,TRUE,2.5999999046325684,7,3,0.1040000021457672,0,-10,10,1.7020009756088257,5,10,48
0,TRUE,4.800000190734863,7,5,0.4320000410079956,1,-10,100,3.0173990726470947,453,100,48
0,FALSE,2.5999999046325684,7,1,0,0,1,101,1.035500407218933,454,101,48
0,FALSE,4.800000190734863,7,6,0.5879999995231628,1,36,102,3.5838990211486816,490,102,48
0,FALSE,2.5999999046325684,7,1,0,0,1,103,0.8357000350952148,491,103,48
0,FALSE,4.800000190734863,7,4,0.3000000119209289,1,16,104,3.0005998611450195,507,104,48
0,FALSE,2.5999999046325684,7,1,0,0,1,105,0.9525002241134644,508,105,48
0,FALSE,4.800000190734863,7,6,0.5879999995231628,1,36,106,3.100400209,544,106,48
0,FALSE,2.5999999046325684,7,1,0,0,1,107,1.035400152206421,545,107,48
0,FALSE,2.5999999046325684,7,1,0,0,1,108,1.2528001070022583,546,108,48
0,TRUE,4.800000190734863,7,7,0.768000066,1,-10,109,3.3835978507995605,536,109,48
0,FALSE,4.800000190734863,7,2,0,1,4,11,1.8518006801605225,9,11,48
0,FALSE,2.5999999046325684,7,1,0,0,1,110,0.7532000541687012,537,110,48
0,TRUE,4.800000190734863,7,7,0.768000066,1,-10,111,3.3172996044158936,527,111,48
0,FALSE,2.5999999046325684,7,1,0,0,1,112,0.7522000074386597,528,112,48
0,FALSE,4.800000190734863,7,5,0.4320000410079956,1,25,113,2.268000602722168,553,113,48
0,FALSE,2.5999999046325684,7,1,0,0,1,114,0.8359001874923706,554,114,48
0,FALSE,4.800000190734863,7,5,0.4320000410079956,1,25,115,2.1015002727508545,579,115,48
0,FALSE,4.800000190734863,7,5,0.4320000410079956,1,25,116,2.433799982070923,604,116,48
0,TRUE,4.800000190734863,7,4,0.3000000119209289,1,-10,117,1.7854005098342896,594,117,48
0,FALSE,4.800000190734863,7,5,0.4320000410079956,1,25,118,2.851198912,619,118,48
0,FALSE,2.5999999046325684,7,1,0,0,1,119,1.1026004552841189,620,119,48
0,FALSE,2.5999999046325684,7,1,0,0,1,12,2.334700584411621,10,12,48
0,FALSE,4.800000190734863,7,1,0,1,1,120,0.9364001750946044,621,120,48
0,FALSE,4.800000190734863,7,2,0,1,4,13,1.7186009883880615,14,13,48
0,FALSE,2.5999999046325684,7,1,0,0,1,14,1.751100778579712,15,14,48
0,FALSE,2.5999999046325684,7,1,0,0,1,15,1.6018006801605225,16,15,48
0,FALSE,4.800000190734863,7,3,0.1920000165700912,1,9,16,1.4837002754211426,25,16,48
0,FALSE,4.800000190734863,7,3,0.1920000165700912,1,9,17,1.9520009756088257,34,17,48
0,FALSE,2.5999999046325684,7,1,0,0,1,18,1.602400541305542,35,18,48
0,FALSE,2.5999999046325684,7,1,0,0,1,19,1.102600336074829,36,19,48
0,FALSE,2.5999999046325684,7,2,0,0,4,2,2.7620999813079834,-6,2,48
0,FALSE,4.800000190734863,7,2,0,1,4,20,1.501400113105774,40,20,48
0,FALSE,2.5999999046325684,7,1,0,0,1,21,1.2869004011154177,41,21,48
0,FALSE,2.5999999046325684,7,1,0,0,1,22,1.019600272,42,22,48
0,FALSE,2.5999999046325684,7,1,0,0,1,23,1.1524004936218262,43,23,48
0,FALSE,4.800000190734863,7,3,0.1920000165700912,1,9,24,2.0513012409210205,52,24,48
0,FALSE,4.800000190734863,7,2,0,1,4,25,3.366099596,56,25,48
0,FALSE,2.5999999046325684,7,1,0,0,1,26,1.136100411,57,26,48
0,FALSE,4.800000190734863,7,2,0,1,4,27,1.3855003118515017,61,27,48
0,FALSE,4.800000190734863,7,3,0.1920000165700912,1,9,28,1.9021005630493164,70,28,48
0,TRUE,4.800000190734863,7,3,0.1920000165700912,1,-10,29,3.316999912261963,60,29,48
0,FALSE,4.800000190734863,7,1,0,1,1,3,3.350799322128296,-5,3,48
0,FALSE,2.5999999046325684,7,1,0,0,1,30,0.835700274,61,30,48
0,FALSE,2.5999999046325684,7,1,0,0,1,31,1.6686010360717771,62,31,48
0,FALSE,4.800000190734863,7,3,0.1920000165700912,1,9,32,1.7030010223388672,71,32,48
0,FALSE,4.800000190734863,7,1,0,1,1,33,1.7021007537841797,72,33,48
0,FALSE,4.800000190734863,7,4,0.3000000119209289,1,16,34,2.4009010791778564,88,34,48
0,FALSE,4.800000190734863,7,2,0,1,4,35,1.4354009628295898,92,35,48
0,FALSE,4.800000190734863,7,2,0,1,4,36,1.3861002922058103,96,36,48
0,FALSE,4.800000190734863,7,4,0.3000000119209289,1,16,37,2.617300510406494,112,37,48
0,FALSE,2.5999999046325684,7,1,0,0,1,38,1.118400216,113,38,48
0,FALSE,2.5999999046325684,7,1,0,0,1,39,0.8025002479553223,114,39,48
0,FALSE,2.5999999046325684,7,3,0.1040000021457672,0,9,4,1.9851007461547847,4,4,48
0,FALSE,4.800000190734863,7,4,0.3000000119209289,1,16,40,2.118601083755493,130,40,48
0,FALSE,2.5999999046325684,7,1,0,0,1,41,1.8018009662628172,131,41,48
0,TRUE,4.800000190734863,7,3,0.1920000165700912,1,-10,42,1.9346002340316768,121,42,48
0,FALSE,2.5999999046325684,7,1,0,0,1,43,1.2199002504348757,122,43,48
0,FALSE,4.800000190734863,7,4,0.3000000119209289,1,16,44,1.8687009811401367,138,44,48
0,FALSE,2.5999999046325684,7,1,0,0,1,45,0.9352000951766968,139,45,48
0,TRUE,4.800000190734863,7,3,0.1920000165700912,1,-10,46,1.6186009645462036,129,46,48
0,FALSE,2.5999999046325684,7,1,0,0,1,47,0.8697999715805054,130,47,48
0,FALSE,4.800000190734863,7,4,0.3000000119209289,1,16,48,1.6524006128311155,146,48,48
0,FALSE,2.5999999046325684,7,1,0,0,1,49,1.0521001815795898,147,49,48
0,TRUE,2.5999999046325684,7,5,0.2339999973773956,0,-10,5,2.784399032592773,-6,5,48
0,FALSE,2.5999999046325684,7,1,0,0,1,50,0.985800028,148,50,48
0,TRUE,4.800000190734863,7,4,0.3000000119209289,1,-10,51,2.451300382614136,138,51,48
0,FALSE,2.5999999046325684,7,1,0,0,1,52,1.5851002931594849,139,52,48
0,FALSE,2.5999999046325684,7,1,0,0,1,53,0.8194001317024231,140,53,48
0,FALSE,2.5999999046325684,7,1,0,0,1,54,0.9190001487731934,141,54,48
0,FALSE,2.5999999046325684,7,1,0,0,1,55,0.9862000942230223,142,55,48
0,FALSE,4.800000190734863,7,4,0.3000000119209289,1,16,56,2.484300374984741,158,56,48
0,FALSE,2.5999999046325684,7,1,0,0,1,57,0.9186999797821044,159,57,48
0,FALSE,2.5999999046325684,7,1,0,0,1,58,0.7197001576423645,160,58,48
0,FALSE,4.800000190734863,7,3,0.1920000165700912,1,9,59,1.5684006214141846,169,59,48
0,FALSE,4.800000190734863,7,3,0.1920000165700912,1,9,6,3.7000982761383057,3,6,48
0,FALSE,4.800000190734863,7,3,0.1920000165700912,1,9,60,1.552500605583191,178,60,48
0,TRUE,4.800000190734863,7,5,0.4320000410079956,1,-10,61,2.9836995601654053,168,61,48
0,FALSE,2.5999999046325684,7,1,0,0,1,62,2.434201240539551,169,62,48
0,FALSE,2.5999999046325684,7,1,0,0,1,63,0.8693999648094177,170,63,48
0,TRUE,4.800000190734863,7,5,0.4320000410079956,1,-10,64,2.384300470352173,160,64,48
0,FALSE,2.5999999046325684,7,1,0,0,1,65,0.7198000550270081,161,65,48
0,FALSE,2.5999999046325684,7,1,0,0,1,66,0.7529000043869019,162,66,48
0,FALSE,2.5999999046325684,7,1,0,0,1,67,0.8193999528884888,163,67,48
0,FALSE,2.5999999046325684,7,1,0,0,1,68,0.8192999362945557,164,68,48
0,FALSE,2.5999999046325684,7,1,0,0,1,69,0.7032999992370605,165,69,48
0,FALSE,2.5999999046325684,7,2,0,0,4,7,2.0687010288238525,7,7,48
0,FALSE,2.5999999046325684,7,1,0,0,1,70,0.7523001432418823,166,70,48
0,FALSE,2.5999999046325684,7,1,0,0,1,71,0.8024001717567444,167,71,48
0,FALSE,2.5999999046325684,7,1,0,0,1,72,0.6692999601364136,168,72,48
0,FALSE,2.5999999046325684,7,1,0,0,1,73,0.669400156,169,73,48
0,FALSE,4.800000190734863,7,5,0.4320000410079956,1,25,74,2.7009987831115723,194,74,48
0,FALSE,4.800000190734863,7,5,0.4320000410079956,1,25,75,2.134300947189331,219,75,48
0,TRUE,4.800000190734863,7,6,0.5879999995231628,1,-10,76,2.8171982765197754,209,76,48
0,FALSE,4.800000190734863,7,6,0.5879999995231628,1,36,77,1.6016002893447876,245,77,48
0,TRUE,4.800000190734863,7,5,0.4320000410079956,1,-10,78,1.8849003314971924,235,78,48
0,FALSE,2.5999999046325684,7,1,0,0,1,79,1.3191004991531372,236,79,48
0,FALSE,4.800000190734863,7,2,0,1,4,8,3.183398962020874,11,8,48
0,FALSE,2.5999999046325684,7,1,0,0,1,80,0.8692001104354858,237,80,48
0,FALSE,2.5999999046325684,7,1,0,0,1,81,0.7527000904083252,238,81,48
0,FALSE,2.5999999046325684,7,1,0,0,1,82,0.7029001116752625,239,82,48
0,FALSE,2.5999999046325684,7,1,0,0,1,83,0.6187000870704651,240,83,48
0,FALSE,4.800000190734863,7,6,0.5879999995231628,1,36,84,2.334399700164795,276,84,48
0,FALSE,4.800000190734863,7,5,0.4320000410079956,1,25,85,2.0684001445770264,301,85,48
0,FALSE,4.800000190734863,7,5,0.4320000410079956,1,25,86,2.0515003204345703,326,86,48
0,FALSE,2.5999999046325684,7,1,0,0,1,87,1.552000641822815,327,87,48
0,FALSE,2.5999999046325684,7,1,0,0,1,88,0.852699876,328,88,48
0,FALSE,4.800000190734863,7,5,0.4320000410079956,1,25,89,2.168000698,353,89,48
0,FALSE,4.800000190734863,7,2,0,1,4,9,3.0176000595092773,15,9,48
0,FALSE,4.800000190734863,7,1,0,1,1,90,2.251100540161133,354,90,48
0,TRUE,4.800000190734863,7,5,0.4320000410079956,1,-10,91,2.201400042,344,91,48
0,TRUE,4.800000190734863,7,6,0.5879999995231628,1,-10,92,2.6346001625061035,334,92,48
0,FALSE,4.800000190734863,7,6,0.5879999995231628,1,36,93,2.6845993995666504,370,93,48
0,FALSE,4.800000190734863,7,4,0.3000000119209289,1,16,94,2.251500368118286,386,94,48
0,FALSE,2.5999999046325684,7,1,0,0,1,95,0.8358001112937927,387,95,48
0,FALSE,2.5999999046325684,7,1,0,0,1,96,0.8027998805046082,388,96,48
0,FALSE,4.800000190734863,7,5,0.4320000410079956,1,25,97,2.434800148010254,413,97,48
0,FALSE,4.800000190734863,7,7,0.768000066,1,49,98,3.6838982105255127,462,98,48
0,FALSE,2.5999999046325684,7,1,0,0,1,99,1.0353002548217771,463,99,48
0,FALSE,4.800000190734863,7,4,0.3000000119209289,1,16,1,5.539297103881836,16,1,56
0,TRUE,2.5999999046325684,7,6,0.3184999823570251,0,-10,10,1.4722000360488892,158,10,56
0,FALSE,4.800000190734863,7,2,0,1,4,100,1.3540996313095093,902,100,56
0,FALSE,2.5999999046325684,7,3,0.1040000021457672,0,9,101,1.504299879074097,911,101,56
0,FALSE,4.800000190734863,7,3,0.1920000165700912,1,9,102,1.4204999208450315,920,102,56
0,FALSE,2.5999999046325684,7,3,0.1040000021457672,0,9,103,1.253900170326233,929,103,56
0,FALSE,4.800000190734863,7,4,0.3000000119209289,1,16,104,1.286699891090393,945,104,56
0,FALSE,2.5999999046325684,7,3,0.1040000021457672,0,9,105,1.135600209236145,954,105,56
0,FALSE,4.800000190734863,7,5,0.4320000410079956,1,25,106,1.270399808883667,979,106,56
0,FALSE,2.5999999046325684,7,3,0.1040000021457672,0,9,107,1.5188000202178955,988,107,56
0,FALSE,2.5999999046325684,7,3,0.1040000021457672,0,9,108,1.0542000532150269,997,108,56
0,FALSE,4.800000190734863,7,5,0.4320000410079956,1,25,109,2.7718992233276367,1022,109,56
0,TRUE,4.800000190734863,7,5,0.4320000410079956,1,-10,11,1.454800367355347,148,11,56
0,FALSE,2.5999999046325684,7,3,0.1040000021457672,0,9,110,4.590597629547119,1031,110,56
0,FALSE,4.800000190734863,7,5,0.4320000410079956,1,25,111,1.5371997356414795,1056,111,56
0,FALSE,2.5999999046325684,7,3,0.1040000021457672,0,9,112,2.004000425338745,1065,112,56
0,TRUE,4.800000190734863,7,6,0.5879999995231628,1,-10,113,2.688199043273926,1055,113,56
0,FALSE,2.5999999046325684,7,3,0.1040000021457672,0,9,114,1.2050000429153442,1064,114,56
0,TRUE,4.800000190734863,7,5,0.4320000410079956,1,-10,115,1.4543999433517456,1054,115,56
0,FALSE,4.800000190734863,7,3,0.1920000165700912,1,9,116,5.324097633361816,1063,116,56
0,FALSE,4.800000190734863,7,3,0.1920000165700912,1,9,117,1.4552996158599854,1072,117,56
0,FALSE,4.800000190734863,7,3,0.1920000165700912,1,9,118,1.1019998788833618,1081,118,56
0,FALSE,2.5999999046325684,7,3,0.1040000021457672,0,9,119,0.9698999524116516,1090,119,56
0,TRUE,2.5999999046325684,7,5,0.2339999973773956,0,-10,12,1.1705998182296753,138,12,56
0,FALSE,4.800000190734863,7,5,0.4320000410079956,1,25,120,1.2881001234054563,1115,120,56
0,FALSE,4.800000190734863,7,4,0.3000000119209289,1,16,13,1.6206998825073242,154,13,56
0,FALSE,2.5999999046325684,7,4,0.1624999940395355,0,16,14,0.9206998348236084,170,14,56
0,FALSE,2.5999999046325684,7,4,0.1624999940395355,0,16,15,0.9539997577667236,186,15,56
0,FALSE,4.800000190734863,7,4,0.3000000119209289,1,16,16,0.8530998826026917,202,16,56
0,FALSE,4.800000190734863,7,4,0.3000000119209289,1,16,17,0.8531002402305603,218,17,56
0,FALSE,2.5999999046325684,7,4,0.1624999940395355,0,16,18,0.8880000114440918,234,18,56
0,FALSE,2.5999999046325684,7,9,0.6499999761581421,0,81,19,1.7036999464035034,315,19,56
0,FALSE,2.5999999046325684,7,5,0.2339999973773956,0,25,2,3.5308988094329834,41,2,56
0,TRUE,4.800000190734863,7,9,1.2000000476837158,1,-10,20,1.654699444770813,305,20,56
0,TRUE,2.5999999046325684,7,9,0.6499999761581421,0,-10,21,1.853999376296997,295,21,56
0,FALSE,2.5999999046325684,7,9,0.6499999761581421,0,81,22,1.7709996700286863,376,22,56
0,TRUE,2.5999999046325684,7,9,0.6499999761581421,0,-10,23,1.6373995542526243,366,23,56
0,TRUE,4.800000190734863,7,9,1.2000000476837158,1,-10,24,1.837799906730652,356,24,56
0,TRUE,4.800000190734863,7,9,1.2000000476837158,1,-10,25,1.8034999370574951,346,25,56
0,TRUE,2.5999999046325684,7,9,0.6499999761581421,0,-10,26,1.954300045967102,336,26,56
0,TRUE,4.800000190734863,7,5,0.4320000410079956,1,-10,27,4.572899341583252,326,27,56
0,FALSE,4.800000190734863,7,4,0.3000000119209289,1,16,28,1.7039998769760132,342,28,56
0,TRUE,4.800000190734863,7,6,0.5879999995231628,1,-10,29,1.6728994846343994,332,29,56
0,FALSE,4.800000190734863,7,7,0.768000066,1,49,3,4.690398216247559,90,3,56
0,FALSE,2.5999999046325684,7,6,0.3184999823570251,0,36,30,1.555400013923645,368,30,56
0,FALSE,2.5999999046325684,7,5,0.2339999973773956,0,25,31,1.323000192642212,393,31,56
0,TRUE,4.800000190734863,7,5,0.4320000410079956,1,-10,32,1.7215999364852903,383,32,56
0,FALSE,4.800000190734863,7,4,0.3000000119209289,1,16,33,1.1868999004364014,399,33,56
0,FALSE,4.800000190734863,7,4,0.3000000119209289,1,16,34,1.1873997449874878,415,34,56
0,FALSE,4.800000190734863,7,5,0.4320000410079956,1,25,35,1.3544999361038208,440,35,56
0,TRUE,4.800000190734863,7,6,0.5879999995231628,1,-10,36,1.6050997972488403,430,36,56
0,FALSE,4.800000190734863,7,7,0.768000066,1,49,37,1.736199975013733,479,37,56
0,FALSE,2.5999999046325684,7,5,0.2339999973773956,0,25,38,2.254999638,504,38,56
0,TRUE,2.5999999046325684,7,6,0.3184999823570251,0,-10,39,1.8215001821517944,494,39,56
0,TRUE,2.5999999046325684,7,7,0.4160000085830688,0,-10,4,1.687400221824646,80,4,56
0,FALSE,4.800000190734863,7,5,0.4320000410079956,1,25,40,2.2553999423980717,519,40,56
0,FALSE,2.5999999046325684,7,5,0.2339999973773956,0,25,41,1.3529000282287598,544,41,56
0,FALSE,4.800000190734863,7,5,0.4320000410079956,1,25,42,1.3212997913360596,569,42,56
0,TRUE,2.5999999046325684,7,6,0.3184999823570251,0,-10,43,3.087299346923828,559,43,56
0,FALSE,4.800000190734863,7,5,0.4320000410079956,1,25,44,1.504000544548035,584,44,56
0,TRUE,2.5999999046325684,7,5,0.2339999973773956,0,-10,45,1.3024998903274536,574,45,56
0,FALSE,4.800000190734863,7,4,0.3000000119209289,1,16,46,1.4368995428085327,590,46,56
0,TRUE,2.5999999046325684,7,4,0.1624999940395355,0,-10,47,1.6859997510910034,580,47,56
0,TRUE,4.800000190734863,7,5,0.4320000410079956,1,-10,48,2.204900026321411,570,48,56
0,TRUE,2.5999999046325684,7,4,0.1624999940395355,0,-10,49,1.303999900817871,560,49,56
0,FALSE,2.5999999046325684,7,6,0.3184999823570251,0,36,5,3.8719990253448486,116,5,56
0,FALSE,2.5999999046325684,7,3,0.1040000021457672,0,9,50,0.986400068,569,50,56
0,FALSE,4.800000190734863,7,4,0.3000000119209289,1,16,51,2.271399736404419,585,51,56
0,FALSE,2.5999999046325684,7,3,0.1040000021457672,0,9,52,0.9533000588417052,594,52,56
0,FALSE,2.5999999046325684,7,3,0.1040000021457672,0,9,53,1.2549000978469849,603,53,56
0,FALSE,2.5999999046325684,7,3,0.1040000021457672,0,9,54,1.371899962425232,612,54,56
0,TRUE,2.5999999046325684,7,3,0.1040000021457672,0,-10,55,1.0386003255844116,602,55,56
0,TRUE,4.800000190734863,7,4,0.3000000119209289,1,-10,56,1.4723000526428225,592,56,56
0,TRUE,2.5999999046325684,7,4,0.1624999940395355,0,-10,57,1.488499879837036,582,57,56
0,FALSE,2.5999999046325684,7,3,0.1040000021457672,0,9,58,0.9868000149726868,591,58,56
0,TRUE,4.800000190734863,7,5,0.4320000410079956,1,-10,59,1.2879000902175903,581,59,56
0,FALSE,4.800000190734863,7,6,0.5879999995231628,1,36,6,1.4380000829696655,152,6,56
0,FALSE,4.800000190734863,7,4,0.3000000119209289,1,16,60,3.689400196,597,60,56
0,FALSE,4.800000190734863,7,4,0.3000000119209289,1,16,61,1.6195000410079956,613,61,56
0,FALSE,2.5999999046325684,7,3,0.1040000021457672,0,9,62,1.039099931716919,622,62,56
0,FALSE,2.5999999046325684,7,3,0.1040000021457672,0,9,63,0.854400098,631,63,56
0,FALSE,4.800000190734863,7,5,0.4320000410079956,1,25,64,2.838299274,656,64,56
0,FALSE,2.5999999046325684,7,3,0.1040000021457672,0,9,65,1.0546997785568235,665,65,56
0,FALSE,2.5999999046325684,7,3,0.1040000021457672,0,9,66,0.818600059,674,66,56
0,FALSE,2.5999999046325684,7,3,0.1040000021457672,0,9,67,1.037600040435791,683,67,56
0,FALSE,2.5999999046325684,7,3,0.1040000021457672,0,9,68,1.3866000175476074,692,68,56
0,FALSE,2.5999999046325684,7,3,0.1040000021457672,0,9,69,1.0546998977661133,701,69,56
0,FALSE,2.5999999046325684,7,6,0.3184999823570251,0,36,7,2.6882994174957275,188,7,56
0,FALSE,2.5999999046325684,7,3,0.1040000021457672,0,9,70,1.4712002277374268,710,70,56
0,FALSE,2.5999999046325684,7,3,0.1040000021457672,0,9,71,0.8531000018119812,719,71,56
0,FALSE,2.5999999046325684,7,3,0.1040000021457672,0,9,72,0.7683999538421631,728,72,56
0,FALSE,2.5999999046325684,7,3,0.1040000021457672,0,9,73,1.17110014,737,73,56
0,FALSE,4.800000190734863,7,5,0.4320000410079956,1,25,74,1.8727998733520508,762,74,56
0,FALSE,4.800000190734863,7,5,0.4320000410079956,1,25,75,1.371899962425232,787,75,56
0,TRUE,4.800000190734863,7,5,0.4320000410079956,1,-10,76,1.551200270652771,777,76,56
0,FALSE,4.800000190734863,7,5,0.4320000410079956,1,25,77,5.190499782562256,802,77,56
0,TRUE,4.800000190734863,7,5,0.4320000410079956,1,-10,78,1.286199688911438,792,78,56
0,FALSE,2.5999999046325684,7,3,0.1040000021457672,0,9,79,1.370999813079834,801,79,56
0,TRUE,4.800000190734863,7,6,0.5879999995231628,1,-10,8,1.7383002042770386,178,8,56
0,TRUE,2.5999999046325684,7,5,0.2339999973773956,0,-10,80,2.0705997943878174,791,80,56
0,FALSE,2.5999999046325684,7,4,0.1624999940395355,0,16,81,1.3031001091003418,807,81,56
0,FALSE,2.5999999046325684,7,3,0.1040000021457672,0,9,82,0.9714001417160034,816,82,56
0,FALSE,2.5999999046325684,7,3,0.1040000021457672,0,9,83,3.206299304962158,825,83,56
0,FALSE,4.800000190734863,7,5,0.4320000410079956,1,25,84,1.4206000566482544,850,84,56
0,FALSE,4.800000190734863,7,5,0.4320000410079956,1,25,85,1.1205002069473269,875,85,56
0,TRUE,4.800000190734863,7,5,0.4320000410079956,1,-10,86,1.2192001342773438,865,86,56
0,FALSE,2.5999999046325684,7,3,0.1040000021457672,0,9,87,1.219999909,874,87,56
0,FALSE,2.5999999046325684,7,3,0.1040000021457672,0,9,88,0.904599905,883,88,56
0,FALSE,4.800000190734863,7,5,0.4320000410079956,1,25,89,1.32069993,908,89,56
0,TRUE,4.800000190734863,7,6,0.5879999995231628,1,-10,9,1.4703997373580933,168,9,56
0,TRUE,4.800000190734863,7,5,0.4320000410079956,1,-10,90,1.687100172042847,898,90,56
0,TRUE,4.800000190734863,7,4,0.3000000119209289,1,-10,91,2.7049005031585693,888,91,56
0,FALSE,4.800000190734863,7,3,0.1920000165700912,1,9,92,1.2040998935699463,897,92,56
0,TRUE,4.800000190734863,7,3,0.1920000165700912,1,-10,93,0.8707998991012573,887,93,56
0,FALSE,4.800000190734863,7,2,0,1,4,94,1.0547999143600464,891,94,56
0,FALSE,2.5999999046325684,7,3,0.1040000021457672,0,9,95,1.6376997232437134,900,95,56
0,FALSE,2.5999999046325684,7,3,0.1040000021457672,0,9,96,0.8885001540184021,909,96,56
0,FALSE,4.800000190734863,7,3,0.1920000165700912,1,9,97,0.9712001085281372,918,97,56
0,TRUE,4.800000190734863,7,4,0.3000000119209289,1,-10,98,0.9210000038146972,908,98,56
0,TRUE,2.5999999046325684,7,3,0.1040000021457672,0,-10,99,0.921299934,898,99,56
0,FALSE,4.800000190734863,7,4,0.3000000119209289,1,16,1,9.116485595703123,16,1,26
0,FALSE,2.5999999046325684,7,6,0.3184999823570251,0,36,10,2.103100299835205,132,10,26
0,FALSE,4.800000190734863,7,1,0,1,1,100,0.935800314,1582,100,26
0,FALSE,2.5999999046325684,7,2,0,0,4,101,1.019800066947937,1586,101,26
0,FALSE,4.800000190734863,7,4,0.3000000119209289,1,16,102,1.5028003454208374,1602,102,26
0,TRUE,2.5999999046325684,7,9,0.6499999761581421,0,-10,103,2.751798629760742,1592,103,26
0,TRUE,4.800000190734863,7,9,1.2000000476837158,1,-10,104,2.4694008827209477,1582,104,26
0,FALSE,2.5999999046325684,7,9,0.6499999761581421,0,81,105,2.319300651550293,1663,105,26
0,TRUE,4.800000190734863,7,5,0.4320000410079956,1,-10,106,1.5034003257751465,1653,106,26
0,FALSE,2.5999999046325684,7,1,0,0,1,107,1.103100061416626,1654,107,26
0,TRUE,2.5999999046325684,7,5,0.2339999973773956,0,-10,108,2.519200563430786,1644,108,26
0,TRUE,4.800000190734863,7,9,1.2000000476837158,1,-10,109,2.485600471496582,1634,109,26
0,TRUE,4.800000190734863,7,5,0.4320000410079956,1,-10,11,2.119800329208374,122,11,26
0,FALSE,2.5999999046325684,7,7,0.4160000085830688,0,49,110,2.6355998516082764,1683,110,26
0,FALSE,4.800000190734863,7,3,0.1920000165700912,1,9,111,1.902400016784668,1692,111,26
0,FALSE,2.5999999046325684,7,3,0.1040000021457672,0,9,112,2.935699462890625,1701,112,26
0,TRUE,4.800000190734863,7,6,0.5879999995231628,1,-10,113,3.1357994079589844,1691,113,26
0,TRUE,2.5999999046325684,7,7,0.4160000085830688,0,-10,114,2.551999807357788,1681,114,26
0,FALSE,4.800000190734863,7,6,0.5879999995231628,1,36,115,1.969800353050232,1717,115,26
0,FALSE,4.800000190734863,7,6,0.5879999995231628,1,36,116,1.702900767326355,1753,116,26
0,TRUE,4.800000190734863,7,7,0.768000066,1,-10,117,1.9519007205963133,1743,117,26
0,TRUE,4.800000190734863,7,6,0.5879999995231628,1,-10,118,2.219700813293457,1733,118,26
0,TRUE,2.5999999046325684,7,9,0.6499999761581421,0,-10,119,2.202199935913086,1723,119,26
0,FALSE,2.5999999046325684,7,8,0.5264999270439148,0,64,12,2.586099863052368,186,12,26
0,FALSE,4.800000190734863,7,6,0.5879999995231628,1,36,120,4.768198013305664,1759,120,26
0,FALSE,4.800000190734863,7,2,0,1,4,13,5.651396275,190,13,26
0,FALSE,2.5999999046325684,7,4,0.1624999940395355,0,16,14,4.901097774505615,206,14,26
0,FALSE,2.5999999046325684,7,7,0.4160000085830688,0,49,15,4.002496719360352,255,15,26
0,FALSE,4.800000190734863,7,1,0,1,1,16,2.5362002849578857,256,16,26
0,FALSE,4.800000190734863,7,3,0.1920000165700912,1,9,17,3.851498603820801,265,17,26
0,FALSE,2.5999999046325684,7,9,0.6499999761581421,0,81,18,3.4852983951568604,346,18,26
0,FALSE,2.5999999046325684,7,5,0.2339999973773956,0,25,19,3.152599573135376,371,19,26
0,TRUE,2.5999999046325684,7,6,0.3184999823570251,0,-10,2,13.22557544708252,6,2,26
0,TRUE,4.800000190734863,7,3,0.1920000165700912,1,-10,20,2.684199810028076,361,20,26
0,FALSE,2.5999999046325684,7,5,0.2339999973773956,0,25,21,3.2691001892089844,386,21,26
0,TRUE,2.5999999046325684,7,6,0.3184999823570251,0,-10,22,3.718898535,376,22,26
0,FALSE,2.5999999046325684,7,8,0.5264999270439148,0,64,23,5.435196399688721,440,23,26
0,TRUE,4.800000190734863,7,4,0.3000000119209289,1,-10,24,9.649184226989746,430,24,26
0,TRUE,4.800000190734863,7,9,1.2000000476837158,1,-10,25,2.936000108718872,420,25,26
0,FALSE,2.5999999046325684,7,5,0.2339999973773956,0,25,26,2.951498985290528,445,26,26
0,TRUE,4.800000190734863,7,9,1.2000000476837158,1,-10,27,3.434998750686645,435,27,26
0,TRUE,4.800000190734863,7,7,0.768000066,1,-10,28,3.468299150466919,425,28,26
0,TRUE,4.800000190734863,7,7,0.768000066,1,-10,29,2.768400192260742,415,29,26
0,FALSE,4.800000190734863,7,3,0.1920000165700912,1,9,3,5.567996025085449,15,3,26
0,FALSE,2.5999999046325684,7,8,0.5264999270439148,0,64,30,2.318300485610962,479,30,26
0,FALSE,2.5999999046325684,7,8,0.5264999270439148,0,64,31,4.0681986808776855,543,31,26
0,TRUE,4.800000190734863,7,8,0.9719999432563782,1,-10,32,3.768798589706421,533,32,26
0,TRUE,4.800000190734863,7,6,0.5879999995231628,1,-10,33,2.2863001823425293,523,33,26
0,FALSE,4.800000190734863,7,7,0.768000066,1,49,34,3.1678991317749023,572,34,26
0,FALSE,4.800000190734863,7,1,0,1,1,35,1.6861006021499634,573,35,26
0,FALSE,4.800000190734863,7,1,0,1,1,36,1.269500494003296,574,36,26
0,TRUE,4.800000190734863,7,3,0.1920000165700912,1,-10,37,2.153100014,564,37,26
0,FALSE,2.5999999046325684,7,9,0.6499999761581421,0,81,38,3.4341986179351807,645,38,26
0,FALSE,2.5999999046325684,7,1,0,0,1,39,4.817897319793701,646,39,26
0,FALSE,2.5999999046325684,7,3,0.1040000021457672,0,9,4,4.651396751403809,24,4,26
0,FALSE,4.800000190734863,7,5,0.4320000410079956,1,25,40,3.668398141860962,671,40,26
0,FALSE,2.5999999046325684,7,7,0.4160000085830688,0,49,41,5.334394931793213,720,41,26
0,TRUE,4.800000190734863,7,9,1.2000000476837158,1,-10,42,4.851895332336426,710,42,26
0,FALSE,2.5999999046325684,7,8,0.5264999270439148,0,64,43,2.4028005599975586,774,43,26
0,FALSE,4.800000190734863,7,1,0,1,1,44,4.518698692321777,775,44,26
0,FALSE,2.5999999046325684,7,3,0.1040000021457672,0,9,45,8.266592979431152,784,45,26
0,TRUE,4.800000190734863,7,9,1.2000000476837158,1,-10,46,3.501600503921509,774,46,26
0,TRUE,2.5999999046325684,7,9,0.6499999761581421,0,-10,47,3.0850985050201416,764,47,26
0,TRUE,4.800000190734863,7,9,1.2000000476837158,1,-10,48,2.7859015464782715,754,48,26
0,FALSE,2.5999999046325684,7,9,0.6499999761581421,0,81,49,2.3526997566223145,835,49,26
0,FALSE,2.5999999046325684,7,4,0.1624999940395355,0,16,5,3.752197980880737,40,5,26
0,TRUE,2.5999999046325684,7,9,0.6499999761581421,0,-10,50,2.3362996578216557,825,50,26
0,TRUE,4.800000190734863,7,8,0.9719999432563782,1,-10,51,1.9528005123138428,815,51,26
0,TRUE,2.5999999046325684,7,9,0.6499999761581421,0,-10,52,2.6690008640289307,805,52,26
0,FALSE,2.5999999046325684,7,4,0.1624999940395355,0,16,53,1.0373002290725708,821,53,26
0,FALSE,2.5999999046325684,7,5,0.2339999973773956,0,25,54,1.1537002325057983,846,54,26
0,FALSE,2.5999999046325684,7,6,0.3184999823570251,0,36,55,1.919600248336792,882,55,26
0,TRUE,4.800000190734863,7,9,1.2000000476837158,1,-10,56,2.502899169921875,872,56,26
0,FALSE,2.5999999046325684,7,6,0.3184999823570251,0,36,57,5.284994602203369,908,57,26
0,TRUE,2.5999999046325684,7,8,0.5264999270439148,0,-10,58,3.4518988132476807,898,58,26
0,TRUE,4.800000190734863,7,9,1.2000000476837158,1,-10,59,3.1359994411468506,888,59,26
0,FALSE,4.800000190734863,7,4,0.3000000119209289,1,16,6,2.2686002254486084,56,6,26
0,TRUE,4.800000190734863,7,7,0.768000066,1,-10,60,3.651498794555664,878,60,26
0,FALSE,4.800000190734863,7,7,0.768000066,1,49,61,3.5517983436584477,927,61,26
0,FALSE,2.5999999046325684,7,6,0.3184999823570251,0,36,62,2.185899496078491,963,62,26
0,FALSE,2.5999999046325684,7,9,0.6499999761581421,0,81,63,3.302098512649536,1044,63,26
0,TRUE,4.800000190734863,7,6,0.5879999995231628,1,-10,64,2.3523006439208984,1034,64,26
0,FALSE,2.5999999046325684,7,5,0.2339999973773956,0,25,65,1.8530006408691408,1059,65,26
0,FALSE,2.5999999046325684,7,6,0.3184999823570251,0,36,66,2.102900505065918,1095,66,26
0,FALSE,2.5999999046325684,7,9,0.6499999761581421,0,81,67,2.236599922180176,1176,67,26
0,FALSE,2.5999999046325684,7,6,0.3184999823570251,0,36,68,2.4200997352600098,1212,68,26
0,TRUE,2.5999999046325684,7,8,0.5264999270439148,0,-10,69,1.9859005212783811,1202,69,26
0,FALSE,2.5999999046325684,7,5,0.2339999973773956,0,25,7,2.435299634933472,81,7,26
0,FALSE,2.5999999046325684,7,6,0.3184999823570251,0,36,70,2.1698005199432373,1238,70,26
0,FALSE,2.5999999046325684,7,7,0.4160000085830688,0,49,71,1.8870007991790767,1287,71,26
0,FALSE,2.5999999046325684,7,8,0.5264999270439148,0,64,72,2.7198994159698486,1351,72,26
0,FALSE,2.5999999046325684,7,8,0.5264999270439148,0,64,73,2.668700218200684,1415,73,26
0,TRUE,4.800000190734863,7,8,0.9719999432563782,1,-10,74,3.152199506759644,1405,74,26
0,TRUE,4.800000190734863,7,7,0.768000066,1,-10,75,2.952899217605591,1395,75,26
0,TRUE,4.800000190734863,7,4,0.3000000119209289,1,-10,76,3.185999155044556,1385,76,26
0,TRUE,4.800000190734863,7,9,1.2000000476837158,1,-10,77,2.202500343322754,1375,77,26
0,FALSE,4.800000190734863,7,1,0,1,1,78,1.5534005165100098,1376,78,26
0,TRUE,2.5999999046325684,7,7,0.4160000085830688,0,-10,79,3.152900457382202,1366,79,26
0,FALSE,4.800000190734863,7,5,0.4320000410079956,1,25,8,2.084500789642334,106,8,26
0,FALSE,2.5999999046325684,7,4,0.1624999940395355,0,16,80,1.7026004791259766,1382,80,26
0,FALSE,2.5999999046325684,7,7,0.4160000085830688,0,49,81,1.7859007120132446,1431,81,26
0,FALSE,2.5999999046325684,7,6,0.3184999823570251,0,36,82,2.585999727249145,1467,82,26
0,FALSE,2.5999999046325684,7,7,0.4160000085830688,0,49,83,2.569499492645264,1516,83,26
0,FALSE,4.800000190734863,7,1,0,1,1,84,1.7028003931045532,1517,84,26
0,FALSE,4.800000190734863,7,1,0,1,1,85,1.8197009563446045,1518,85,26
0,TRUE,4.800000190734863,7,8,0.9719999432563782,1,-10,86,2.902999163,1508,86,26
0,FALSE,2.5999999046325684,7,4,0.1624999940395355,0,16,87,1.3692004680633545,1524,87,26
0,FALSE,2.5999999046325684,7,6,0.3184999823570251,0,36,88,1.9191004037857056,1560,88,26
0,TRUE,4.800000190734863,7,8,0.9719999432563782,1,-10,89,2.086400270462036,1550,89,26
0,TRUE,4.800000190734863,7,6,0.5879999995231628,1,-10,9,4.635194301605225,96,9,26
0,TRUE,4.800000190734863,7,8,0.9719999432563782,1,-10,90,1.9199004173278809,1540,90,26
0,TRUE,4.800000190734863,7,9,1.2000000476837158,1,-10,91,2.301800251,1530,91,26
0,TRUE,4.800000190734863,7,7,0.768000066,1,-10,92,1.5526005029678345,1520,92,26
0,TRUE,4.800000190734863,7,5,0.4320000410079956,1,-10,93,1.236700177192688,1510,93,26
0,TRUE,4.800000190734863,7,4,0.3000000119209289,1,-10,94,1.0198001861572266,1500,94,26
0,FALSE,2.5999999046325684,7,8,0.5264999270439148,0,64,95,2.2694997787475586,1564,95,26
0,TRUE,2.5999999046325684,7,9,0.6499999761581421,0,-10,96,3.084899663925171,1554,96,26
0,TRUE,4.800000190734863,7,5,0.4320000410079956,1,-10,97,1.7029001712799072,1544,97,26
0,FALSE,4.800000190734863,7,1,0,1,1,98,1.620000243186951,1545,98,26
0,FALSE,2.5999999046325684,7,6,0.3184999823570251,0,36,99,2.8189005851745605,1581,99,26
0,FALSE,4.800000190734863,7,5,0.4320000410079956,1,25,1,4.586797237,25,1,71
0,FALSE,2.5999999046325684,7,5,0.2339999973773956,0,25,10,2.9034993648529053,180,10,71
0,TRUE,4.800000190734863,7,5,0.4320000410079956,1,-10,100,1.5699008703231812,1581,100,71
0,FALSE,2.5999999046325684,7,5,0.2339999973773956,0,25,101,2.170200824737549,1606,101,71
0,FALSE,4.800000190734863,7,5,0.4320000410079956,1,25,102,1.4198001623153689,1631,102,71
0,FALSE,2.5999999046325684,7,5,0.2339999973773956,0,25,103,1.3863004446029663,1656,103,71
0,TRUE,4.800000190734863,7,5,0.4320000410079956,1,-10,104,1.4700008630752563,1646,104,71
0,FALSE,2.5999999046325684,7,5,0.2339999973773956,0,25,105,1.736801028251648,1671,105,71
0,TRUE,4.800000190734863,7,5,0.4320000410079956,1,-10,106,1.5700008869171145,1661,106,71
0,TRUE,2.5999999046325684,7,5,0.2339999973773956,0,-10,107,3.0029993057250977,1651,107,71
0,FALSE,2.5999999046325684,7,5,0.2339999973773956,0,25,108,1.4366004467010498,1676,108,71
0,TRUE,4.800000190734863,7,5,0.4320000410079956,1,-10,109,2.037001371383667,1666,109,71
0,FALSE,4.800000190734863,7,5,0.4320000410079956,1,25,11,2.6867003440856934,205,11,71
0,FALSE,2.5999999046325684,7,5,0.2339999973773956,0,25,110,1.136600375175476,1691,110,71
0,TRUE,4.800000190734863,7,5,0.4320000410079956,1,-10,111,2.3034002780914307,1681,111,71
0,FALSE,2.5999999046325684,7,5,0.2339999973773956,0,25,112,1.2034000158309937,1706,112,71
0,FALSE,4.800000190734863,7,5,0.4320000410079956,1,25,113,1.5199005603790283,1731,113,71
0,TRUE,2.5999999046325684,7,5,0.2339999973773956,0,-10,114,1.236800193786621,1721,114,71
0,TRUE,4.800000190734863,7,5,0.4320000410079956,1,-10,115,1.1362003087997437,1711,115,71
0,FALSE,4.800000190734863,7,5,0.4320000410079956,1,25,116,1.1698005199432373,1736,116,71
0,TRUE,4.800000190734863,7,5,0.4320000410079956,1,-10,117,1.169000267982483,1726,117,71
0,FALSE,4.800000190734863,7,5,0.4320000410079956,1,25,118,1.2355998754501345,1751,118,71
0,FALSE,2.5999999046325684,7,5,0.2339999973773956,0,25,119,1.5376001596450806,1776,119,71
0,TRUE,2.5999999046325684,7,7,0.4160000085830688,0,-10,12,2.903499126434326,195,12,71
0,TRUE,4.800000190734863,7,5,0.4320000410079956,1,-10,120,1.2527000904083252,1766,120,71
0,TRUE,4.800000190734863,7,5,0.4320000410079956,1,-10,13,2.903899908065796,185,13,71
0,FALSE,2.5999999046325684,7,5,0.2339999973773956,0,25,14,1.6182010173797607,210,14,71
0,TRUE,2.5999999046325684,7,5,0.2339999973773956,0,-10,15,1.9869009256362915,200,15,71
0,FALSE,4.800000190734863,7,5,0.4320000410079956,1,25,16,2.170100688934326,225,16,71
0,FALSE,4.800000190734863,7,5,0.4320000410079956,1,25,17,1.7030009031295776,250,17,71
0,FALSE,2.5999999046325684,7,5,0.2339999973773956,0,25,18,1.853501319885254,275,18,71
0,TRUE,2.5999999046325684,7,5,0.2339999973773956,0,-10,19,1.7366011142730713,265,19,71
0,TRUE,2.5999999046325684,7,6,0.3184999823570251,0,-10,2,3.842398405075073,15,2,71
0,FALSE,4.800000190734863,7,5,0.4320000410079956,1,25,20,2.0368010997772217,290,20,71
0,FALSE,2.5999999046325684,7,5,0.2339999973773956,0,25,21,1.9533014297485352,315,21,71
0,FALSE,2.5999999046325684,7,4,0.1624999940395355,0,16,22,3.670697689056397,331,22,71
0,FALSE,2.5999999046325684,7,5,0.2339999973773956,0,25,23,2.219801187515259,356,23,71
0,TRUE,4.800000190734863,7,5,0.4320000410079956,1,-10,24,1.903301239013672,346,24,71
0,TRUE,4.800000190734863,7,5,0.4320000410079956,1,-10,25,2.386800527572632,336,25,71
0,FALSE,2.5999999046325684,7,5,0.2339999973773956,0,25,26,1.401200294494629,361,26,71
0,FALSE,4.800000190734863,7,5,0.4320000410079956,1,25,27,1.436600923538208,386,27,71
0,FALSE,4.800000190734863,7,5,0.4320000410079956,1,25,28,1.570101022720337,411,28,71
0,TRUE,4.800000190734863,7,5,0.4320000410079956,1,-10,29,1.5701013803482056,401,29,71
0,FALSE,4.800000190734863,7,5,0.4320000410079956,1,25,3,2.7636001110076904,40,3,71
0,FALSE,2.5999999046325684,7,5,0.2339999973773956,0,25,30,1.5531010627746582,426,30,71
0,TRUE,2.5999999046325684,7,5,0.2339999973773956,0,-10,31,1.570300579071045,416,31,71
0,TRUE,4.800000190734863,7,5,0.4320000410079956,1,-10,32,1.436500906944275,406,32,71
0,FALSE,4.800000190734863,7,5,0.4320000410079956,1,25,33,1.4364008903503418,431,33,71
0,TRUE,4.800000190734863,7,5,0.4320000410079956,1,-10,34,1.370100736618042,421,34,71
0,TRUE,4.800000190734863,7,5,0.4320000410079956,1,-10,35,1.4867008924484253,411,35,71
0,FALSE,4.800000190734863,7,5,0.4320000410079956,1,25,36,1.3869006633758545,436,36,71
0,FALSE,4.800000190734863,7,5,0.4320000410079956,1,25,37,1.420000672340393,461,37,71
0,FALSE,2.5999999046325684,7,5,0.2339999973773956,0,25,38,1.4868006706237793,486,38,71
0,FALSE,2.5999999046325684,7,5,0.2339999973773956,0,25,39,1.267700433731079,511,39,71
0,FALSE,2.5999999046325684,7,5,0.2339999973773956,0,25,4,2.9872000217437744,65,4,71
0,FALSE,4.800000190734863,7,5,0.4320000410079956,1,25,40,1.437200903892517,536,40,71
0,FALSE,2.5999999046325684,7,5,0.2339999973773956,0,25,41,1.5036007165908811,561,41,71
0,FALSE,4.800000190734863,7,5,0.4320000410079956,1,25,42,1.919801354408264,586,42,71
0,FALSE,2.5999999046325684,7,5,0.2339999973773956,0,25,43,1.386301040649414,611,43,71
0,FALSE,4.800000190734863,7,5,0.4320000410079956,1,25,44,1.4056007862091064,636,44,71
0,FALSE,2.5999999046325684,7,5,0.2339999973773956,0,25,45,1.6872013807296753,661,45,71
0,FALSE,4.800000190734863,7,5,0.4320000410079956,1,25,46,1.2702007293701172,686,46,71
0,FALSE,2.5999999046325684,7,5,0.2339999973773956,0,25,47,1.603800654411316,711,47,71
0,TRUE,4.800000190734863,7,5,0.4320000410079956,1,-10,48,1.7367010116577148,701,48,71
0,FALSE,2.5999999046325684,7,5,0.2339999973773956,0,25,49,3.429299116134644,726,49,71
0,TRUE,2.5999999046325684,7,6,0.3184999823570251,0,-10,5,2.953598737716675,55,5,71
0,FALSE,2.5999999046325684,7,5,0.2339999973773956,0,25,50,1.4531008005142212,751,50,71
0,FALSE,4.800000190734863,7,5,0.4320000410079956,1,25,51,1.4527004957199097,776,51,71
0,FALSE,2.5999999046325684,7,5,0.2339999973773956,0,25,52,1.504300594329834,801,52,71
0,FALSE,2.5999999046325684,7,5,0.2339999973773956,0,25,53,1.5851002931594849,826,53,71
0,FALSE,2.5999999046325684,7,5,0.2339999973773956,0,25,54,2.270200252532959,851,54,71
0,TRUE,2.5999999046325684,7,5,0.2339999973773956,0,-10,55,1.5370001792907717,841,55,71
0,FALSE,4.800000190734863,7,5,0.4320000410079956,1,25,56,1.7044010162353516,866,56,71
0,FALSE,2.5999999046325684,7,5,0.2339999973773956,0,25,57,1.3201003074645996,891,57,71
0,FALSE,2.5999999046325684,7,5,0.2339999973773956,0,25,58,1.0878002643585205,916,58,71
0,TRUE,4.800000190734863,7,5,0.4320000410079956,1,-10,59,1.2189000844955444,906,59,71
0,FALSE,4.800000190734863,7,5,0.4320000410079956,1,25,6,3.718198299407959,80,6,71
0,FALSE,4.800000190734863,7,5,0.4320000410079956,1,25,60,2.3536009788513184,931,60,71
0,TRUE,4.800000190734863,7,5,0.4320000410079956,1,-10,61,1.4871002435684204,921,61,71
0,FALSE,2.5999999046325684,7,5,0.2339999973773956,0,25,62,2.2867002487182617,946,62,71
0,FALSE,2.5999999046325684,7,5,0.2339999973773956,0,25,63,1.486100435256958,971,63,71
0,TRUE,4.800000190734863,7,5,0.4320000410079956,1,-10,64,1.5363004207611084,961,64,71
0,FALSE,2.5999999046325684,7,5,0.2339999973773956,0,25,65,1.620100736618042,986,65,71
0,FALSE,2.5999999046325684,7,5,0.2339999973773956,0,25,66,1.372700333595276,1011,66,71
0,FALSE,2.5999999046325684,7,5,0.2339999973773956,0,25,67,1.2376000881195068,1036,67,71
0,TRUE,2.5999999046325684,7,5,0.2339999973773956,0,-10,68,1.536500334739685,1026,68,71
0,TRUE,2.5999999046325684,7,5,0.2339999973773956,0,-10,69,1.6536004543304443,1016,69,71
0,FALSE,2.5999999046325684,7,5,0.2339999973773956,0,25,7,2.502800464630127,105,7,71
0,FALSE,2.5999999046325684,7,5,0.2339999973773956,0,25,70,4.053699493408203,1041,70,71
0,TRUE,2.5999999046325684,7,5,0.2339999973773956,0,-10,71,1.369900822639465,1031,71,71
0,FALSE,2.5999999046325684,7,5,0.2339999973773956,0,25,72,1.719700813293457,1056,72,71
0,FALSE,2.5999999046325684,7,5,0.2339999973773956,0,25,73,1.2203000783920288,1081,73,71
0,TRUE,4.800000190734863,7,5,0.4320000410079956,1,-10,74,1.5036007165908811,1071,74,71
0,FALSE,4.800000190734863,7,5,0.4320000410079956,1,25,75,2.901998758,1096,75,71
0,FALSE,4.800000190734863,7,5,0.4320000410079956,1,25,76,1.5303001403808594,1121,76,71
0,FALSE,4.800000190734863,7,5,0.4320000410079956,1,25,77,1.2368000745773315,1146,77,71
0,FALSE,4.800000190734863,7,5,0.4320000410079956,1,25,78,1.2019002437591553,1171,78,71
0,FALSE,2.5999999046325684,7,5,0.2339999973773956,0,25,79,1.671000361442566,1196,79,71
0,FALSE,4.800000190734863,7,5,0.4320000410079956,1,25,8,2.0372016429901123,130,8,71
0,FALSE,2.5999999046325684,7,5,0.2339999973773956,0,25,80,1.2710002660751345,1221,80,71
0,FALSE,2.5999999046325684,7,5,0.2339999973773956,0,25,81,1.8684005737304688,1246,81,71
0,FALSE,2.5999999046325684,7,5,0.2339999973773956,0,25,82,1.369800329208374,1271,82,71
0,FALSE,2.5999999046325684,7,5,0.2339999973773956,0,25,83,1.703300714492798,1296,83,71
0,FALSE,4.800000190734863,7,5,0.4320000410079956,1,25,84,1.4035003185272217,1321,84,71
0,TRUE,4.800000190734863,7,5,0.4320000410079956,1,-10,85,1.3731003999710083,1311,85,71
0,FALSE,4.800000190734863,7,5,0.4320000410079956,1,25,86,1.4702000617980957,1336,86,71
0,FALSE,2.5999999046325684,7,5,0.2339999973773956,0,25,87,1.4025002717971802,1361,87,71
0,FALSE,2.5999999046325684,7,5,0.2339999973773956,0,25,88,1.0856003761291504,1386,88,71
0,FALSE,4.800000190734863,7,5,0.4320000410079956,1,25,89,1.7051005363464355,1411,89,71
0,FALSE,4.800000190734863,7,5,0.4320000410079956,1,25,9,1.920401096343994,155,9,71
0,FALSE,4.800000190734863,7,5,0.4320000410079956,1,25,90,1.921000599861145,1436,90,71
0,FALSE,4.800000190734863,7,5,0.4320000410079956,1,25,91,1.503300428390503,1461,91,71
0,FALSE,4.800000190734863,7,5,0.4320000410079956,1,25,92,1.4036998748779297,1486,92,71
0,FALSE,4.800000190734863,7,5,0.4320000410079956,1,25,93,1.4707000255584717,1511,93,71
0,TRUE,4.800000190734863,7,5,0.4320000410079956,1,-10,94,1.320100188,1501,94,71
0,FALSE,2.5999999046325684,7,5,0.2339999973773956,0,25,95,1.4667001962661743,1526,95,71
0,FALSE,2.5999999046325684,7,5,0.2339999973773956,0,25,96,1.252100110054016,1551,96,71
0,FALSE,4.800000190734863,7,5,0.4320000410079956,1,25,97,1.136500120162964,1576,97,71
0,TRUE,4.800000190734863,7,5,0.4320000410079956,1,-10,98,1.3862004280090332,1566,98,71
0,FALSE,2.5999999046325684,7,5,0.2339999973773956,0,25,99,1.8528008460998533,1591,99,71
0,FALSE,4.800000190734863,7,3,0.1920000165700912,1,9,1,7.669889450073242,9,1,69
0,FALSE,2.5999999046325684,7,3,0.1040000021457672,0,9,10,2.3857996463775635,63,10,69
0,TRUE,4.800000190734863,7,4,0.3000000119209289,1,-10,100,2.635500192642212,812,100,69
0,FALSE,2.5999999046325684,7,3,0.1040000021457672,0,9,101,2.469901323318481,821,101,69
0,FALSE,4.800000190734863,7,4,0.3000000119209289,1,16,102,3.634399652481079,837,102,69
0,FALSE,2.5999999046325684,7,3,0.1040000021457672,0,9,103,3.2030997276306152,846,103,69
0,FALSE,4.800000190734863,7,4,0.3000000119209289,1,16,104,2.454500198364258,862,104,69
0,FALSE,2.5999999046325684,7,3,0.1040000021457672,0,9,105,2.168400287628174,871,105,69
0,FALSE,4.800000190734863,7,4,0.3000000119209289,1,16,106,3.0341992378234863,887,106,69
0,FALSE,2.5999999046325684,7,3,0.1040000021457672,0,9,107,6.719790458679199,896,107,69
0,FALSE,2.5999999046325684,7,4,0.1624999940395355,0,16,108,3.868299722671509,912,108,69
0,FALSE,4.800000190734863,7,5,0.4320000410079956,1,25,109,3.634700059890747,937,109,69
0,TRUE,4.800000190734863,7,5,0.4320000410079956,1,-10,11,4.417798996,53,11,69
0,FALSE,2.5999999046325684,7,3,0.1040000021457672,0,9,110,2.335500717163086,946,110,69
0,FALSE,4.800000190734863,7,4,0.3000000119209289,1,16,111,7.405287742614746,962,111,69
0,TRUE,2.5999999046325684,7,4,0.1624999940395355,0,-10,112,3.950798988342285,952,112,69
0,FALSE,4.800000190734863,7,5,0.4320000410079956,1,25,113,5.600792407989502,977,113,69
0,TRUE,2.5999999046325684,7,4,0.1624999940395355,0,-10,114,3.135798692703247,967,114,69
0,TRUE,4.800000190734863,7,4,0.3000000119209289,1,-10,115,2.486100196838379,957,115,69
0,TRUE,4.800000190734863,7,5,0.4320000410079956,1,-10,116,3.5030980110168457,947,116,69
0,TRUE,4.800000190734863,7,5,0.4320000410079956,1,-10,117,2.902600049972534,937,117,69
0,FALSE,4.800000190734863,7,5,0.4320000410079956,1,25,118,3.335300207138061,962,118,69
0,FALSE,2.5999999046325684,7,3,0.1040000021457672,0,9,119,2.333700656890869,971,119,69
0,FALSE,2.5999999046325684,7,3,0.1040000021457672,0,9,12,9.035988807678224,62,12,69
0,FALSE,4.800000190734863,7,4,0.3000000119209289,1,16,120,39.76989746,987,120,69
0,FALSE,4.800000190734863,7,4,0.3000000119209289,1,16,13,2.7184998989105225,78,13,69
0,FALSE,2.5999999046325684,7,3,0.1040000021457672,0,9,14,2.668600321,87,14,69
0,FALSE,2.5999999046325684,7,4,0.1624999940395355,0,16,15,2.9014997482299805,103,15,69
0,FALSE,4.800000190734863,7,5,0.4320000410079956,1,25,16,3.553400039672852,128,16,69
0,FALSE,4.800000190734863,7,5,0.4320000410079956,1,25,17,8.119391441345215,153,17,69
0,TRUE,2.5999999046325684,7,4,0.1624999940395355,0,-10,18,3.568498134613037,143,18,69
0,FALSE,2.5999999046325684,7,3,0.1040000021457672,0,9,19,2.266800880432129,152,19,69
0,FALSE,2.5999999046325684,7,3,0.1040000021457672,0,9,2,3.221501111984253,18,2,69
0,TRUE,4.800000190734863,7,5,0.4320000410079956,1,-10,20,5.535994052886963,142,20,69
0,FALSE,2.5999999046325684,7,3,0.1040000021457672,0,9,21,7.353092193603516,151,21,69
0,FALSE,2.5999999046325684,7,4,0.1624999940395355,0,16,22,5.670094013214111,167,22,69
0,FALSE,2.5999999046325684,7,3,0.1040000021457672,0,9,23,4.152997016906738,176,23,69
0,TRUE,4.800000190734863,7,5,0.4320000410079956,1,-10,24,3.300899028778076,166,24,69
0,TRUE,4.800000190734863,7,5,0.4320000410079956,1,-10,25,3.484299898147583,156,25,69
0,FALSE,2.5999999046325684,7,4,0.1624999940395355,0,16,26,4.352499485015869,172,26,69
0,FALSE,4.800000190734863,7,4,0.3000000119209289,1,16,27,3.386399745941162,188,27,69
0,FALSE,4.800000190734863,7,4,0.3000000119209289,1,16,28,4.353097915649414,204,28,69
0,TRUE,4.800000190734863,7,6,0.5879999995231628,1,-10,29,4.386597633361816,194,29,69
0,FALSE,4.800000190734863,7,4,0.3000000119209289,1,16,3,4.986595630645752,34,3,69
0,FALSE,2.5999999046325684,7,3,0.1040000021457672,0,9,30,4.700197696685791,203,30,69
0,FALSE,2.5999999046325684,7,4,0.1624999940395355,0,16,31,4.003298282623291,219,31,69
0,FALSE,4.800000190734863,7,4,0.3000000119209289,1,16,32,3.9867990016937256,235,32,69
0,FALSE,4.800000190734863,7,5,0.4320000410079956,1,25,33,3.484397649765014,260,33,69
0,FALSE,4.800000190734863,7,4,0.3000000119209289,1,16,34,3.9532992839813232,276,34,69
0,TRUE,4.800000190734863,7,5,0.4320000410079956,1,-10,35,3.169799327850342,266,35,69
0,FALSE,4.800000190734863,7,5,0.4320000410079956,1,25,36,3.1529996395111084,291,36,69
0,TRUE,4.800000190734863,7,5,0.4320000410079956,1,-10,37,2.8011999130249023,281,37,69
0,FALSE,2.5999999046325684,7,4,0.1624999940395355,0,16,38,2.551600694656372,297,38,69
0,TRUE,2.5999999046325684,7,3,0.1040000021457672,0,-10,39,2.518899917602539,287,39,69
0,TRUE,2.5999999046325684,7,4,0.1624999940395355,0,-10,4,5.4199934005737305,24,4,69
0,FALSE,4.800000190734863,7,4,0.3000000119209289,1,16,40,4.067899227142334,303,40,69
0,FALSE,2.5999999046325684,7,4,0.1624999940395355,0,16,41,6.185292720794678,319,41,69
0,TRUE,4.800000190734863,7,5,0.4320000410079956,1,-10,42,2.800899028778076,309,42,69
0,FALSE,2.5999999046325684,7,3,0.1040000021457672,0,9,43,1.9855008125305176,318,43,69
0,FALSE,4.800000190734863,7,4,0.3000000119209289,1,16,44,4.104297637939453,334,44,69
0,TRUE,2.5999999046325684,7,4,0.1624999940395355,0,-10,45,2.703599452972412,324,45,69
0,FALSE,4.800000190734863,7,5,0.4320000410079956,1,25,46,3.986799716949463,349,46,69
0,FALSE,2.5999999046325684,7,3,0.1040000021457672,0,9,47,3.867899179458618,358,47,69
0,FALSE,4.800000190734863,7,4,0.3000000119209289,1,16,48,3.469499349594116,374,48,69
0,FALSE,2.5999999046325684,7,4,0.1624999940395355,0,16,49,4.969297409057617,390,49,69
0,TRUE,2.5999999046325684,7,6,0.3184999823570251,0,-10,5,7.834191799163818,14,5,69
0,FALSE,2.5999999046325684,7,3,0.1040000021457672,0,9,50,2.953099489212036,399,50,69
0,FALSE,4.800000190734863,7,5,0.4320000410079956,1,25,51,5.769593238830566,424,51,69
0,FALSE,2.5999999046325684,7,3,0.1040000021457672,0,9,52,3.652199268341065,433,52,69
0,FALSE,2.5999999046325684,7,3,0.1040000021457672,0,9,53,10.151576042175291,442,53,69
0,FALSE,2.5999999046325684,7,3,0.1040000021457672,0,9,54,7.652087211608887,451,54,69
0,FALSE,2.5999999046325684,7,3,0.1040000021457672,0,9,55,4.466796398162842,460,55,69
0,TRUE,4.800000190734863,7,5,0.4320000410079956,1,-10,56,7.968888282775879,450,56,69
0,FALSE,2.5999999046325684,7,3,0.1040000021457672,0,9,57,2.202800750732422,459,57,69
0,FALSE,2.5999999046325684,7,4,0.1624999940395355,0,16,58,8.669085502624512,475,58,69
0,FALSE,4.800000190734863,7,4,0.3000000119209289,1,16,59,3.0359995365142822,491,59,69
0,FALSE,4.800000190734863,7,4,0.3000000119209289,1,16,6,5.386096954345703,30,6,69
0,TRUE,4.800000190734863,7,4,0.3000000119209289,1,-10,60,6.537593364715576,481,60,69
0,TRUE,4.800000190734863,7,5,0.4320000410079956,1,-10,61,5.000895977020264,471,61,69
0,FALSE,2.5999999046325684,7,3,0.1040000021457672,0,9,62,4.885598182678223,480,62,69
0,FALSE,2.5999999046325684,7,3,0.1040000021457672,0,9,63,17.92033576965332,489,63,69
0,TRUE,4.800000190734863,7,4,0.3000000119209289,1,-10,64,2.8381006717681885,479,64,69
0,FALSE,2.5999999046325684,7,4,0.1624999940395355,0,16,65,3.4031999111175537,495,65,69
0,FALSE,2.5999999046325684,7,3,0.1040000021457672,0,9,66,3.8680999279022217,504,66,69
0,FALSE,2.5999999046325684,7,4,0.1624999940395355,0,16,67,4.753998279571533,520,67,69
0,FALSE,2.5999999046325684,7,4,0.1624999940395355,0,16,68,4.950399875640869,536,68,69
0,FALSE,2.5999999046325684,7,4,0.1624999940395355,0,16,69,5.769394397735596,552,69,69
0,FALSE,2.5999999046325684,7,3,0.1040000021457672,0,9,7,3.502599000930786,39,7,69
0,FALSE,2.5999999046325684,7,3,0.1040000021457672,0,9,70,12.80306339263916,561,70,69
0,FALSE,2.5999999046325684,7,4,0.1624999940395355,0,16,71,12.36815357208252,577,71,69
0,FALSE,2.5999999046325684,7,4,0.1624999940395355,0,16,72,4.102898120880127,593,72,69
0,TRUE,2.5999999046325684,7,4,0.1624999940395355,0,-10,73,5.568796634674072,583,73,69
0,FALSE,4.800000190734863,7,4,0.3000000119209289,1,16,74,7.169089317321777,599,74,69
0,FALSE,4.800000190734863,7,4,0.3000000119209289,1,16,75,6.003195762634277,615,75,69
0,FALSE,4.800000190734863,7,4,0.3000000119209289,1,16,76,5.218896389007568,631,76,69
0,FALSE,4.800000190734863,7,4,0.3000000119209289,1,16,77,11.668869018554688,647,77,69
0,FALSE,4.800000190734863,7,4,0.3000000119209289,1,16,78,4.520097732543945,663,78,69
0,TRUE,2.5999999046325684,7,3,0.1040000021457672,0,-10,79,5.2692975997924805,653,79,69
0,TRUE,4.800000190734863,7,6,0.5879999995231628,1,-10,8,10.734376907348633,29,8,69
0,FALSE,2.5999999046325684,7,4,0.1624999940395355,0,16,80,4.869098186,669,80,69
0,TRUE,2.5999999046325684,7,4,0.1624999940395355,0,-10,81,8.119287490844727,659,81,69
0,FALSE,2.5999999046325684,7,3,0.1040000021457672,0,9,82,7.303589820861816,668,82,69
0,FALSE,2.5999999046325684,7,3,0.1040000021457672,0,9,83,5.870494365692139,677,83,69
0,FALSE,4.800000190734863,7,4,0.3000000119209289,1,16,84,5.017596722,693,84,69
0,FALSE,4.800000190734863,7,4,0.3000000119209289,1,16,85,3.9697999954223633,709,85,69
0,TRUE,4.800000190734863,7,4,0.3000000119209289,1,-10,86,12.836261749267578,699,86,69
0,FALSE,2.5999999046325684,7,3,0.1040000021457672,0,9,87,4.951896190643311,708,87,69
0,FALSE,2.5999999046325684,7,3,0.1040000021457672,0,9,88,6.836491584777832,717,88,69
0,FALSE,4.800000190734863,7,4,0.3000000119209289,1,16,89,13.602051734924316,733,89,69
0,FALSE,4.800000190734863,7,5,0.4320000410079956,1,25,9,4.719397545,54,9,69
0,FALSE,4.800000190734863,7,5,0.4320000410079956,1,25,90,12.303067207336426,758,90,69
0,FALSE,4.800000190734863,7,3,0.1920000165700912,1,9,91,3.0523998737335205,767,91,69
0,TRUE,4.800000190734863,7,5,0.4320000410079956,1,-10,92,3.203399896621704,757,92,69
0,FALSE,4.800000190734863,7,4,0.3000000119209289,1,16,93,7.620289325714111,773,93,69
0,FALSE,4.800000190734863,7,4,0.3000000119209289,1,16,94,6.568990707397461,789,94,69
0,FALSE,2.5999999046325684,7,3,0.1040000021457672,0,9,95,6.754490375518799,798,95,69
0,FALSE,2.5999999046325684,7,3,0.1040000021457672,0,9,96,9.120085716,807,96,69
0,FALSE,4.800000190734863,7,4,0.3000000119209289,1,16,97,5.553297043,823,97,69
0,TRUE,4.800000190734863,7,4,0.3000000119209289,1,-10,98,14.66943359,813,98,69
0,FALSE,2.5999999046325684,7,3,0.1040000021457672,0,9,99,12.652864456176758,822,99,69
0,TRUE,4.800000190734863,7,9,1.2000000476837158,1,-10,1,13.39930248260498,-10,1,8
0,FALSE,2.5999999046325684,7,6,0.3184999823570251,0,36,10,2.650800466537476,112,10,8
0,FALSE,4.800000190734863,7,4,0.3000000119209289,1,16,100,2.6564998626708984,1596,100,8
0,FALSE,2.5999999046325684,7,4,0.1624999940395355,0,16,101,2.362499952316284,1612,101,8
0,FALSE,4.800000190734863,7,4,0.3000000119209289,1,16,102,1.6285001039505005,1628,102,8
0,TRUE,2.5999999046325684,7,4,0.1624999940395355,0,-10,103,1.2953999042510986,1618,103,8
0,TRUE,4.800000190734863,7,5,0.4320000410079956,1,-10,104,1.876699686050415,1608,104,8
0,FALSE,2.5999999046325684,7,5,0.2339999973773956,0,25,105,2.068999767303467,1633,105,8
0,TRUE,4.800000190734863,7,6,0.5879999995231628,1,-10,106,2.6499993801116943,1623,106,8
0,FALSE,2.5999999046325684,7,6,0.3184999823570251,0,36,107,4.587300777435303,1659,107,8
0,FALSE,2.5999999046325684,7,6,0.3184999823570251,0,36,108,2.162800073623657,1695,108,8
0,TRUE,4.800000190734863,7,6,0.5879999995231628,1,-10,109,2.507200002670288,1685,109,8
0,TRUE,4.800000190734863,7,5,0.4320000410079956,1,-10,11,2.519599914550781,102,11,8
0,TRUE,2.5999999046325684,7,5,0.2339999973773956,0,-10,110,2.118499994277954,1675,110,8
0,TRUE,4.800000190734863,7,9,1.2000000476837158,1,-10,111,2.316799164,1665,111,8
0,TRUE,2.5999999046325684,7,7,0.4160000085830688,0,-10,112,1.3508000373840332,1655,112,8
0,TRUE,4.800000190734863,7,7,0.768000066,1,-10,113,1.9140000343322756,1645,113,8
0,FALSE,2.5999999046325684,7,6,0.3184999823570251,0,36,114,1.855699896812439,1681,114,8
0,FALSE,4.800000190734863,7,6,0.5879999995231628,1,36,115,2.34779954,1717,115,8
0,TRUE,4.800000190734863,7,4,0.3000000119209289,1,-10,116,1.5196001529693604,1707,116,8
0,FALSE,4.800000190734863,7,3,0.1920000165700912,1,9,117,1.7110997438430786,1716,117,8
0,FALSE,4.800000190734863,7,4,0.3000000119209289,1,16,118,3.224199056625366,1732,118,8
0,FALSE,2.5999999046325684,7,8,0.5264999270439148,0,64,119,2.501999616622925,1796,119,8
0,FALSE,2.5999999046325684,7,9,0.6499999761581421,0,81,12,2.886199474334717,183,12,8
0,TRUE,4.800000190734863,7,5,0.4320000410079956,1,-10,120,2.4353997707366943,1786,120,8
0,FALSE,4.800000190734863,7,4,0.3000000119209289,1,16,13,2.639699697494507,199,13,8
0,FALSE,2.5999999046325684,7,9,0.6499999761581421,0,81,14,4.129498958587647,280,14,8
0,FALSE,2.5999999046325684,7,7,0.4160000085830688,0,49,15,2.3572006225585938,329,15,8
0,FALSE,4.800000190734863,7,5,0.4320000410079956,1,25,16,2.3771002292633057,354,16,8
0,FALSE,4.800000190734863,7,6,0.5879999995231628,1,36,17,2.7833993434906006,390,17,8
0,FALSE,2.5999999046325684,7,7,0.4160000085830688,0,49,18,2.489599704742432,439,18,8
0,FALSE,2.5999999046325684,7,7,0.4160000085830688,0,49,19,2.607999324798584,488,19,8
0,FALSE,2.5999999046325684,7,7,0.4160000085830688,0,49,2,4.955100059509277,39,2,8
0,TRUE,4.800000190734863,7,9,1.2000000476837158,1,-10,20,4.279698371887207,478,20,8
0,FALSE,2.5999999046325684,7,9,0.6499999761581421,0,81,21,3.550999164581299,559,21,8
0,FALSE,2.5999999046325684,7,5,0.2339999973773956,0,25,22,2.017699718475342,584,22,8
0,FALSE,2.5999999046325684,7,7,0.4160000085830688,0,49,23,2.376199960708618,633,23,8
0,TRUE,4.800000190734863,7,8,0.9719999432563782,1,-10,24,2.859799623,623,24,8
0,TRUE,4.800000190734863,7,9,1.2000000476837158,1,-10,25,2.8767998218536377,613,25,8
0,FALSE,2.5999999046325684,7,9,0.6499999761581421,0,81,26,3.884099245071411,694,26,8
0,TRUE,4.800000190734863,7,9,1.2000000476837158,1,-10,27,2.7175004482269287,684,27,8
0,TRUE,4.800000190734863,7,9,1.2000000476837158,1,-10,28,2.617699623,674,28,8
0,TRUE,4.800000190734863,7,8,0.9719999432563782,1,-10,29,2.710900307,664,29,8
0,TRUE,4.800000190734863,7,5,0.4320000410079956,1,-10,3,4.609301567077637,29,3,8
0,FALSE,2.5999999046325684,7,6,0.3184999823570251,0,36,30,1.9972999095916748,700,30,8
0,FALSE,2.5999999046325684,7,6,0.3184999823570251,0,36,31,2.0881004333496094,736,31,8
0,FALSE,4.800000190734863,7,6,0.5879999995231628,1,36,32,2.1301002502441406,772,32,8
0,TRUE,4.800000190734863,7,6,0.5879999995231628,1,-10,33,2.4218993186950684,762,33,8
0,TRUE,4.800000190734863,7,6,0.5879999995231628,1,-10,34,1.8500995635986328,752,34,8
0,FALSE,4.800000190734863,7,4,0.3000000119209289,1,16,35,1.466499924659729,768,35,8
0,FALSE,4.800000190734863,7,4,0.3000000119209289,1,16,36,1.4747002124786377,784,36,8
0,FALSE,4.800000190734863,7,5,0.4320000410079956,1,25,37,1.4511001110076904,809,37,8
0,FALSE,2.5999999046325684,7,6,0.3184999823570251,0,36,38,2.1474997997283936,845,38,8
0,FALSE,2.5999999046325684,7,5,0.2339999973773956,0,25,39,1.7683998346328735,870,39,8
0,TRUE,2.5999999046325684,7,7,0.4160000085830688,0,-10,4,3.2778987884521484,19,4,8
0,FALSE,4.800000190734863,7,5,0.4320000410079956,1,25,40,1.552800178527832,895,40,8
0,FALSE,2.5999999046325684,7,5,0.2339999973773956,0,25,41,2.0012998580932617,920,41,8
0,TRUE,4.800000190734863,7,5,0.4320000410079956,1,-10,42,1.6483004093170166,910,42,8
0,FALSE,2.5999999046325684,7,9,0.6499999761581421,0,81,43,2.920999289,991,43,8
0,TRUE,4.800000190734863,7,7,0.768000066,1,-10,44,2.384200335,981,44,8
0,FALSE,2.5999999046325684,7,9,0.6499999761581421,0,81,45,2.4364001750946045,1062,45,8
0,TRUE,4.800000190734863,7,6,0.5879999995231628,1,-10,46,2.5710995197296143,1052,46,8
0,FALSE,2.5999999046325684,7,9,0.6499999761581421,0,81,47,2.772199869155884,1133,47,8
0,TRUE,4.800000190734863,7,7,0.768000066,1,-10,48,2.381200075149536,1123,48,8
0,TRUE,2.5999999046325684,7,8,0.5264999270439148,0,-10,49,2.5483996868133545,1113,49,8
0,FALSE,2.5999999046325684,7,4,0.1624999940395355,0,16,5,2.310699939727783,35,5,8
0,TRUE,2.5999999046325684,7,8,0.5264999270439148,0,-10,50,2.3656997680664062,1103,50,8
0,TRUE,4.800000190734863,7,7,0.768000066,1,-10,51,2.397699833,1093,51,8
0,TRUE,2.5999999046325684,7,8,0.5264999270439148,0,-10,52,2.3508994579315186,1083,52,8
0,TRUE,2.5999999046325684,7,9,0.6499999761581421,0,-10,53,2.385200023651123,1073,53,8
0,TRUE,2.5999999046325684,7,6,0.3184999823570251,0,-10,54,1.9526997804641724,1063,54,8
0,FALSE,2.5999999046325684,7,6,0.3184999823570251,0,36,55,2.0364999771118164,1099,55,8
0,FALSE,4.800000190734863,7,5,0.4320000410079956,1,25,56,1.7568000555038452,1124,56,8
0,FALSE,2.5999999046325684,7,5,0.2339999973773956,0,25,57,1.7348999977111816,1149,57,8
0,TRUE,2.5999999046325684,7,5,0.2339999973773956,0,-10,58,1.5184998512268066,1139,58,8
0,TRUE,4.800000190734863,7,9,1.2000000476837158,1,-10,59,2.5712995529174805,1129,59,8
0,FALSE,4.800000190734863,7,5,0.4320000410079956,1,25,6,2.5310001373291016,60,6,8
0,TRUE,4.800000190734863,7,9,1.2000000476837158,1,-10,60,2.085399389266968,1119,60,8
0,TRUE,4.800000190734863,7,9,1.2000000476837158,1,-10,61,2.127499580383301,1109,61,8
0,FALSE,2.5999999046325684,7,5,0.2339999973773956,0,25,62,2.1554994583129883,1134,62,8
0,TRUE,2.5999999046325684,7,6,0.3184999823570251,0,-10,63,1.9730000495910645,1124,63,8
0,TRUE,4.800000190734863,7,7,0.768000066,1,-10,64,2.5637004375457764,1114,64,8
0,TRUE,2.5999999046325684,7,8,0.5264999270439148,0,-10,65,3.1275997161865234,1104,65,8
0,TRUE,2.5999999046325684,7,8,0.5264999270439148,0,-10,66,2.3128998279571533,1094,66,8
0,TRUE,2.5999999046325684,7,8,0.5264999270439148,0,-10,67,5.024899482727051,1084,67,8
0,FALSE,2.5999999046325684,7,5,0.2339999973773956,0,25,68,1.875,1109,68,8
0,FALSE,2.5999999046325684,7,6,0.3184999823570251,0,36,69,2.866000175476074,1145,69,8
0,TRUE,2.5999999046325684,7,5,0.2339999973773956,0,-10,7,2.2801997661590576,50,7,8
0,FALSE,2.5999999046325684,7,6,0.3184999823570251,0,36,70,2.090399742126465,1181,70,8
0,FALSE,2.5999999046325684,7,5,0.2339999973773956,0,25,71,1.9573999643325808,1206,71,8
0,FALSE,2.5999999046325684,7,6,0.3184999823570251,0,36,72,1.9294004440307615,1242,72,8
0,FALSE,2.5999999046325684,7,6,0.3184999823570251,0,36,73,2.0729000568389893,1278,73,8
0,TRUE,4.800000190734863,7,6,0.5879999995231628,1,-10,74,2.5172998905181885,1268,74,8
0,TRUE,4.800000190734863,7,9,1.2000000476837158,1,-10,75,2.905799627304077,1258,75,8
