attack,attackProb,attackRange,choice,currProb,predatorType,reward,round,rt,totMoney,trial,subID
FALSE,2.5999999046325684,7,2,0,0,4,1,2.200800895690918,4,1,82
FALSE,2.5999999046325684,7,4,0.1624999940395355,0,16,10,0.9868003726005554,126,10,82
TRUE,4.800000190734863,7,5,0.4320000410079956,1,-10,100,0.9860002994537354,511,100,82
TRUE,4.800000190734863,7,6,0.5879999995231628,1,-10,101,0.886900008,501,101,82
FALSE,2.5999999046325684,7,4,0.1624999940395355,0,16,102,0.7030999660491943,517,102,82
FALSE,4.800000190734863,7,4,0.3000000119209289,1,16,103,0.6695000529289246,533,103,82
TRUE,4.800000190734863,7,5,0.4320000410079956,1,-10,104,0.886000395,523,104,82
FALSE,4.800000190734863,7,3,0.1920000165700912,1,9,105,0.5528000593185425,532,105,82
FALSE,4.800000190734863,7,3,0.1920000165700912,1,9,106,0.5864000916481018,541,106,82
FALSE,4.800000190734863,7,5,0.4320000410079956,1,25,107,0.736700177,566,107,82
FALSE,2.5999999046325684,7,5,0.2339999973773956,0,25,108,0.7866001725196838,591,108,82
FALSE,2.5999999046325684,7,4,0.1624999940395355,0,16,109,0.5862001180648804,607,109,82
FALSE,2.5999999046325684,7,4,0.1624999940395355,0,16,11,1.0031001567840576,142,11,82
FALSE,2.5999999046325684,7,4,0.1624999940395355,0,16,110,0.6695000529289246,623,110,82
FALSE,2.5999999046325684,7,4,0.1624999940395355,0,16,111,0.6199000477790833,639,111,82
FALSE,2.5999999046325684,7,4,0.1624999940395355,0,16,112,0.6863000392913818,655,112,82
TRUE,2.5999999046325684,7,9,0.6499999761581421,0,-10,113,1.5526005029678345,645,113,82
FALSE,2.5999999046325684,7,7,0.4160000085830688,0,49,114,1.3026008605957031,694,114,82
TRUE,4.800000190734863,7,8,0.9719999432563782,1,-10,115,1.4196006059646606,684,115,82
TRUE,2.5999999046325684,7,7,0.4160000085830688,0,-10,116,1.2193001508712769,674,116,82
TRUE,4.800000190734863,7,7,0.768000066,1,-10,117,1.2530007362365725,664,117,82
FALSE,4.800000190734863,7,5,0.4320000410079956,1,25,118,0.9862000942230223,689,118,82
FALSE,2.5999999046325684,7,5,0.2339999973773956,0,25,119,0.8528000116348267,714,119,82
FALSE,4.800000190734863,7,3,0.1920000165700912,1,9,12,64.34169006347656,151,12,82
FALSE,4.800000190734863,7,5,0.4320000410079956,1,25,120,0.8854002356529236,739,120,82
FALSE,4.800000190734863,7,3,0.1920000165700912,1,9,13,1.7522013187408447,160,13,82
FALSE,4.800000190734863,7,4,0.3000000119209289,1,16,14,1.236600637435913,176,14,82
TRUE,2.5999999046325684,7,4,0.1624999940395355,0,-10,15,0.8197001218795776,166,15,82
TRUE,2.5999999046325684,7,9,0.6499999761581421,0,-10,16,1.835101127624512,156,16,82
FALSE,2.5999999046325684,7,6,0.3184999823570251,0,36,17,0.9194000959396362,192,17,82
TRUE,2.5999999046325684,7,5,0.2339999973773956,0,-10,18,0.7200002074241638,182,18,82
FALSE,4.800000190734863,7,1,0,1,1,19,7.099690914154053,183,19,82
FALSE,4.800000190734863,7,3,0.1920000165700912,1,9,2,0.5801000595092773,13,2,82
TRUE,2.5999999046325684,7,9,0.6499999761581421,0,-10,20,3.167998552322388,173,20,82
FALSE,2.5999999046325684,7,4,0.1624999940395355,0,16,21,3.051799297332764,189,21,82
FALSE,2.5999999046325684,7,5,0.2339999973773956,0,25,22,1.802200436592102,214,22,82
FALSE,4.800000190734863,7,4,0.3000000119209289,1,16,23,0.6869000196456909,230,23,82
TRUE,4.800000190734863,7,4,0.3000000119209289,1,-10,24,0.9527999758720398,220,24,82
TRUE,2.5999999046325684,7,7,0.4160000085830688,0,-10,25,1.3858004808425903,210,25,82
FALSE,2.5999999046325684,7,4,0.1624999940395355,0,16,26,0.6871002912521362,226,26,82
FALSE,2.5999999046325684,7,4,0.1624999940395355,0,16,27,0.8697001934051514,242,27,82
FALSE,4.800000190734863,7,4,0.3000000119209289,1,16,28,0.6701000928878784,258,28,82
FALSE,4.800000190734863,7,4,0.3000000119209289,1,16,29,0.7207001447677612,274,29,82
FALSE,4.800000190734863,7,4,0.3000000119209289,1,16,3,0.7190002202987671,29,3,82
TRUE,4.800000190734863,7,4,0.3000000119209289,1,-10,30,18.06985664367676,264,30,82
FALSE,4.800000190734863,7,3,0.1920000165700912,1,9,31,1.2027004957199097,273,31,82
TRUE,4.800000190734863,7,4,0.3000000119209289,1,-10,32,0.9362001419067384,263,32,82
FALSE,2.5999999046325684,7,7,0.4160000085830688,0,49,33,1.9025001525878904,312,33,82
FALSE,2.5999999046325684,7,4,0.1624999940395355,0,16,34,1.6365004777908323,328,34,82
FALSE,2.5999999046325684,7,3,0.1040000021457672,0,9,35,31.838647842407227,337,35,82
FALSE,4.800000190734863,7,3,0.1920000165700912,1,9,36,24.525297164916992,346,36,82
FALSE,2.5999999046325684,7,3,0.1040000021457672,0,9,37,2.3682003021240234,355,37,82
FALSE,4.800000190734863,7,3,0.1920000165700912,1,9,38,2.452000617980957,364,38,82
TRUE,4.800000190734863,7,7,0.768000066,1,-10,39,2.5756001472473145,354,39,82
FALSE,2.5999999046325684,7,4,0.1624999940395355,0,16,4,0.6366000175476074,45,4,82
FALSE,2.5999999046325684,7,4,0.1624999940395355,0,16,40,1.6191009283065796,370,40,82
FALSE,4.800000190734863,7,5,0.4320000410079956,1,25,41,0.7363002300262451,395,41,82
FALSE,4.800000190734863,7,5,0.4320000410079956,1,25,42,0.668700099,420,42,82
FALSE,4.800000190734863,7,5,0.4320000410079956,1,25,43,0.6867001056671143,445,43,82
FALSE,2.5999999046325684,7,5,0.2339999973773956,0,25,44,0.7023001909255981,470,44,82
FALSE,4.800000190734863,7,5,0.4320000410079956,1,25,45,0.8530001640319824,495,45,82
FALSE,2.5999999046325684,7,5,0.2339999973773956,0,25,46,1.2359000444412231,520,46,82
FALSE,4.800000190734863,7,5,0.4320000410079956,1,25,47,1.2860004901885986,545,47,82
FALSE,2.5999999046325684,7,5,0.2339999973773956,0,25,48,1.0857003927230835,570,48,82
FALSE,2.5999999046325684,7,4,0.1624999940395355,0,16,49,1.0529001951217651,586,49,82
FALSE,2.5999999046325684,7,4,0.1624999940395355,0,16,5,0.6363999247550964,61,5,82
FALSE,2.5999999046325684,7,5,0.2339999973773956,0,25,50,1.3197007179260254,611,50,82
TRUE,4.800000190734863,7,4,0.3000000119209289,1,-10,51,1.2028006315231323,601,51,82
TRUE,4.800000190734863,7,6,0.5879999995231628,1,-10,52,0.9523004293441772,591,52,82
TRUE,2.5999999046325684,7,5,0.2339999973773956,0,-10,53,0.8529000878334045,581,53,82
TRUE,4.800000190734863,7,9,1.2000000476837158,1,-10,54,1.8024009466171265,571,54,82
TRUE,4.800000190734863,7,4,0.3000000119209289,1,-10,55,0.6370000243186951,561,55,82
FALSE,2.5999999046325684,7,5,0.2339999973773956,0,25,56,0.7863003015518188,586,56,82
TRUE,4.800000190734863,7,5,0.4320000410079956,1,-10,57,0.7361001968383789,576,57,82
FALSE,4.800000190734863,7,5,0.4320000410079956,1,25,58,1.3190007209777832,601,58,82
FALSE,2.5999999046325684,7,4,0.1624999940395355,0,16,59,0.8860000967979431,617,59,82
TRUE,4.800000190734863,7,4,0.3000000119209289,1,-10,6,0.737200141,51,6,82
TRUE,2.5999999046325684,7,4,0.1624999940395355,0,-10,60,0.6359000205993652,0,60,82
FALSE,4.800000190734863,7,4,0.3000000119209289,1,16,61,1.252800226211548,16,61,82
FALSE,2.5999999046325684,7,4,0.1624999940395355,0,16,62,0.7534000277519226,32,62,82
FALSE,2.5999999046325684,7,4,0.1624999940395355,0,16,63,0.7028999924659729,48,63,82
FALSE,2.5999999046325684,7,4,0.1624999940395355,0,16,64,0.7026997804641724,64,64,82
TRUE,4.800000190734863,7,4,0.3000000119209289,1,-10,65,0.7697000503540039,54,65,82
FALSE,2.5999999046325684,7,6,0.3184999823570251,0,36,66,0.8862000703811646,90,66,82
TRUE,2.5999999046325684,7,5,0.2339999973773956,0,-10,67,0.8702001571655273,80,67,82
FALSE,2.5999999046325684,7,6,0.3184999823570251,0,36,68,1.0198001861572266,116,68,82
FALSE,4.800000190734863,7,3,0.1920000165700912,1,9,69,1.802401423454285,125,69,82
FALSE,4.800000190734863,7,3,0.1920000165700912,1,9,7,1.4524006843566897,60,7,82
FALSE,2.5999999046325684,7,3,0.1040000021457672,0,9,70,0.5872000455856323,134,70,82
FALSE,4.800000190734863,7,3,0.1920000165700912,1,9,71,1.4184004068374634,143,71,82
TRUE,4.800000190734863,7,4,0.3000000119209289,1,-10,72,1.3360005617141724,133,72,82
FALSE,2.5999999046325684,7,4,0.1624999940395355,0,16,73,0.652999997,149,73,82
FALSE,4.800000190734863,7,3,0.1920000165700912,1,9,74,0.6187000274658203,158,74,82
FALSE,4.800000190734863,7,4,0.3000000119209289,1,16,75,0.6359999775886536,174,75,82
FALSE,4.800000190734863,7,4,0.3000000119209289,1,16,76,0.5698999762535095,190,76,82
FALSE,4.800000190734863,7,4,0.3000000119209289,1,16,77,0.6029000878334045,206,77,82
TRUE,2.5999999046325684,7,3,0.1040000021457672,0,-10,78,0.5374000072479248,196,78,82
FALSE,4.800000190734863,7,3,0.1920000165700912,1,9,79,2.0528013706207275,205,79,82
FALSE,2.5999999046325684,7,5,0.2339999973773956,0,25,8,0.953000307,85,8,82
FALSE,4.800000190734863,7,4,0.3000000119209289,1,16,80,0.8537001013755798,221,80,82
TRUE,2.5999999046325684,7,8,0.5264999270439148,0,-10,81,2.385699987411499,211,81,82
FALSE,2.5999999046325684,7,4,0.1624999940395355,0,16,82,0.7204000949859619,227,82,82
FALSE,4.800000190734863,7,5,0.4320000410079956,1,25,83,0.8199001550674438,252,83,82
FALSE,4.800000190734863,7,5,0.4320000410079956,1,25,84,1.1029002666473389,277,84,82
FALSE,2.5999999046325684,7,5,0.2339999973773956,0,25,85,0.920000136,302,85,82
FALSE,4.800000190734863,7,5,0.4320000410079956,1,25,86,0.8701000213623047,327,86,82
FALSE,4.800000190734863,7,4,0.3000000119209289,1,16,87,0.7528002262115479,343,87,82
TRUE,4.800000190734863,7,5,0.4320000410079956,1,-10,88,1.1366004943847656,333,88,82
FALSE,4.800000190734863,7,4,0.3000000119209289,1,16,89,0.6870001554489136,349,89,82
FALSE,4.800000190734863,7,5,0.4320000410079956,1,25,9,1.4689009189605713,110,9,82
FALSE,4.800000190734863,7,4,0.3000000119209289,1,16,90,0.6032000780105591,365,90,82
FALSE,2.5999999046325684,7,4,0.1624999940395355,0,16,91,0.5364000201225281,381,91,82
FALSE,2.5999999046325684,7,4,0.1624999940395355,0,16,92,0.5870000123977661,397,92,82
FALSE,2.5999999046325684,7,4,0.1624999940395355,0,16,93,0.652900219,413,93,82
FALSE,2.5999999046325684,7,4,0.1624999940395355,0,16,94,0.6205000877380371,429,94,82
FALSE,2.5999999046325684,7,4,0.1624999940395355,0,16,95,1.1362006664276123,445,95,82
TRUE,4.800000190734863,7,4,0.3000000119209289,1,-10,96,0.6680999994277954,435,96,82
FALSE,2.5999999046325684,7,5,0.2339999973773956,0,25,97,0.7683000564575195,460,97,82
FALSE,2.5999999046325684,7,5,0.2339999973773956,0,25,98,0.8203001618385315,485,98,82
FALSE,2.5999999046325684,7,6,0.3184999823570251,0,36,99,1.0864003896713257,521,99,82
FALSE,4.800000190734863,7,6,0.5879999995231628,1,36,1,13.714361190795898,36,121,82
FALSE,2.5999999046325684,7,3,0.1040000021457672,0,9,10,1.2195005416870115,177,130,82
FALSE,2.5999999046325684,7,5,0.2339999973773956,0,25,11,1.5370004177093506,202,131,82
TRUE,2.5999999046325684,7,5,0.2339999973773956,0,-10,12,1.7925010919570925,192,132,82
FALSE,4.800000190734863,7,4,0.3000000119209289,1,16,13,1.692800998687744,208,133,82
FALSE,2.5999999046325684,7,4,0.1624999940395355,0,16,14,1.1523005962371826,224,134,82
FALSE,2.5999999046325684,7,4,0.1624999940395355,0,16,15,0.9360002279281616,240,135,82
FALSE,2.5999999046325684,7,4,0.1624999940395355,0,16,16,0.9362001419067384,256,136,82
FALSE,4.800000190734863,7,4,0.3000000119209289,1,16,17,0.9194005131721495,272,137,82
FALSE,2.5999999046325684,7,4,0.1624999940395355,0,16,18,1.0859004259109497,288,138,82
FALSE,4.800000190734863,7,4,0.3000000119209289,1,16,19,0.7033001184463501,304,139,82
FALSE,2.5999999046325684,7,5,0.2339999973773956,0,25,2,1.7532013654708862,61,122,82
FALSE,2.5999999046325684,7,4,0.1624999940395355,0,16,20,1.869301199913025,320,140,82
TRUE,2.5999999046325684,7,5,0.2339999973773956,0,-10,21,1.136300563812256,310,141,82
FALSE,4.800000190734863,7,5,0.4320000410079956,1,25,22,1.6757010221481323,335,142,82
FALSE,4.800000190734863,7,4,0.3000000119209289,1,16,23,1.8594012260437007,351,143,82
FALSE,4.800000190734863,7,5,0.4320000410079956,1,25,24,1.4775006771087646,376,144,82
TRUE,4.800000190734863,7,5,0.4320000410079956,1,-10,25,1.6928008794784546,366,145,82
FALSE,4.800000190734863,7,3,0.1920000165700912,1,9,26,1.7032010555267334,375,146,82
FALSE,4.800000190734863,7,4,0.3000000119209289,1,16,27,1.5357009172439575,391,147,82
FALSE,4.800000190734863,7,4,0.3000000119209289,1,16,28,2.752699136734009,407,148,82
FALSE,2.5999999046325684,7,4,0.1624999940395355,0,16,29,0.7867002487182617,423,149,82
FALSE,2.5999999046325684,7,5,0.2339999973773956,0,25,3,2.353000879,86,123,82
FALSE,2.5999999046325684,7,4,0.1624999940395355,0,16,30,1.1527003049850464,439,150,82
FALSE,4.800000190734863,7,4,0.3000000119209289,1,16,4,1.119600534439087,102,124,82
FALSE,2.5999999046325684,7,4,0.1624999940395355,0,16,5,0.8030000329017639,118,125,82
FALSE,4.800000190734863,7,4,0.3000000119209289,1,16,6,1.9166014194488523,134,126,82
FALSE,2.5999999046325684,7,3,0.1040000021457672,0,9,7,1.425200581550598,143,127,82
FALSE,4.800000190734863,7,3,0.1920000165700912,1,9,8,1.1192004680633545,152,128,82
FALSE,4.800000190734863,7,4,0.3000000119209289,1,16,9,2.459000587463379,168,129,82
TRUE,2.5999999046325684,7,6,0.3184999823570251,0,-10,1,4.136298656463623,-10,1,27
FALSE,2.5999999046325684,7,7,0.4160000085830688,0,49,10,3.018899440765381,173,10,27
FALSE,4.800000190734863,7,3,0.1920000165700912,1,9,100,2.7367992401123047,611,100,27
FALSE,4.800000190734863,7,3,0.1920000165700912,1,9,101,3.886099100112915,620,101,27
FALSE,2.5999999046325684,7,7,0.4160000085830688,0,49,102,3.669500350952149,669,102,27
FALSE,4.800000190734863,7,3,0.1920000165700912,1,9,103,3.302698373794556,678,103,27
FALSE,4.800000190734863,7,3,0.1920000165700912,1,9,104,2.5203001499176025,687,104,27
FALSE,4.800000190734863,7,2,0,1,4,105,3.6689975261688232,691,105,27
FALSE,4.800000190734863,7,2,0,1,4,106,2.336700201034546,695,106,27
FALSE,4.800000190734863,7,2,0,1,4,107,4.5358991622924805,699,107,27
FALSE,2.5999999046325684,7,7,0.4160000085830688,0,49,108,3.0690994262695312,748,108,27
FALSE,2.5999999046325684,7,4,0.1624999940395355,0,16,109,2.085900307,764,109,27
TRUE,2.5999999046325684,7,7,0.4160000085830688,0,-10,11,2.304500102996826,163,11,27
FALSE,2.5999999046325684,7,6,0.3184999823570251,0,36,110,3.286299228668213,800,110,27
FALSE,2.5999999046325684,7,6,0.3184999823570251,0,36,111,2.520599842071533,836,111,27
FALSE,2.5999999046325684,7,5,0.2339999973773956,0,25,112,3.2858996391296387,861,112,27
FALSE,2.5999999046325684,7,6,0.3184999823570251,0,36,113,3.902998685836792,897,113,27
FALSE,2.5999999046325684,7,5,0.2339999973773956,0,25,114,2.652799606323242,922,114,27
TRUE,4.800000190734863,7,4,0.3000000119209289,1,-10,115,2.587000131607056,912,115,27
FALSE,2.5999999046325684,7,7,0.4160000085830688,0,49,116,5.002996921539307,961,116,27
FALSE,4.800000190734863,7,3,0.1920000165700912,1,9,117,2.237200736999512,970,117,27
FALSE,4.800000190734863,7,3,0.1920000165700912,1,9,118,2.869100332260132,979,118,27
FALSE,2.5999999046325684,7,6,0.3184999823570251,0,36,119,7.086296558380127,1015,119,27
FALSE,4.800000190734863,7,5,0.4320000410079956,1,25,12,4.103798389434815,188,12,27
TRUE,4.800000190734863,7,5,0.4320000410079956,1,-10,120,8.653490067,1005,120,27
TRUE,4.800000190734863,7,6,0.5879999995231628,1,-10,13,3.4028987884521484,178,13,27
FALSE,4.800000190734863,7,6,0.5879999995231628,1,36,14,2.0527002811431885,214,14,27
TRUE,2.5999999046325684,7,7,0.4160000085830688,0,-10,15,3.919101715,204,15,27
FALSE,2.5999999046325684,7,7,0.4160000085830688,0,49,16,2.1205999851226807,253,16,27
FALSE,2.5999999046325684,7,5,0.2339999973773956,0,25,17,2.935999631881714,278,17,27
TRUE,2.5999999046325684,7,9,0.6499999761581421,0,-10,18,3.0186002254486084,268,18,27
TRUE,4.800000190734863,7,6,0.5879999995231628,1,-10,19,3.2368996143341064,258,19,27
TRUE,4.800000190734863,7,6,0.5879999995231628,1,-10,2,3.8020992279052734,-20,2,27
TRUE,2.5999999046325684,7,8,0.5264999270439148,0,-10,20,3.036198854446411,248,20,27
FALSE,2.5999999046325684,7,7,0.4160000085830688,0,49,21,2.0032002925872803,297,21,27
FALSE,2.5999999046325684,7,7,0.4160000085830688,0,49,22,3.61979866,346,22,27
TRUE,4.800000190734863,7,5,0.4320000410079956,1,-10,23,1.920100212097168,336,23,27
TRUE,4.800000190734863,7,5,0.4320000410079956,1,-10,24,6.953795433044434,326,24,27
FALSE,2.5999999046325684,7,7,0.4160000085830688,0,49,25,2.903799057006836,375,25,27
FALSE,2.5999999046325684,7,6,0.3184999823570251,0,36,26,3.4852993488311768,411,26,27
FALSE,2.5999999046325684,7,7,0.4160000085830688,0,49,27,6.587299823760986,460,27,27
FALSE,4.800000190734863,7,3,0.1920000165700912,1,9,28,1.5529999732971191,469,28,27
TRUE,4.800000190734863,7,4,0.3000000119209289,1,-10,29,1.836300015449524,459,29,27
FALSE,4.800000190734863,7,5,0.4320000410079956,1,25,3,1.953699946403504,5,3,27
FALSE,4.800000190734863,7,3,0.1920000165700912,1,9,30,1.737199783325195,468,30,27
TRUE,4.800000190734863,7,3,0.1920000165700912,1,-10,31,1.5539002418518066,458,31,27
FALSE,4.800000190734863,7,1,0,1,1,32,2.250200033187866,459,32,27
FALSE,2.5999999046325684,7,6,0.3184999823570251,0,36,33,2.369899272918701,495,33,27
TRUE,2.5999999046325684,7,4,0.1624999940395355,0,-10,34,4.952795505523682,485,34,27
TRUE,2.5999999046325684,7,9,0.6499999761581421,0,-10,35,3.136099100112915,475,35,27
FALSE,4.800000190734863,7,1,0,1,1,36,2.3695003986358643,476,36,27
FALSE,2.5999999046325684,7,8,0.5264999270439148,0,64,37,3.3200979232788086,540,37,27
FALSE,4.800000190734863,7,1,0,1,1,38,1.537000060081482,541,38,27
FALSE,4.800000190734863,7,3,0.1920000165700912,1,9,39,1.3196998834609983,550,39,27
FALSE,2.5999999046325684,7,5,0.2339999973773956,0,25,4,2.469799757003784,30,4,27
FALSE,2.5999999046325684,7,5,0.2339999973773956,0,25,40,2.419400215148926,575,40,27
FALSE,4.800000190734863,7,2,0,1,4,41,1.7202003002166748,579,41,27
TRUE,4.800000190734863,7,3,0.1920000165700912,1,-10,42,4.11979866,569,42,27
FALSE,4.800000190734863,7,2,0,1,4,43,1.969900131225586,573,43,27
FALSE,2.5999999046325684,7,5,0.2339999973773956,0,25,44,2.003199577331543,598,44,27
FALSE,4.800000190734863,7,4,0.3000000119209289,1,16,45,2.8863987922668457,614,45,27
FALSE,2.5999999046325684,7,6,0.3184999823570251,0,36,46,3.752698421478272,650,46,27
FALSE,4.800000190734863,7,1,0,1,1,47,1.3197002410888672,651,47,27
TRUE,2.5999999046325684,7,7,0.4160000085830688,0,-10,48,5.287297726,641,48,27
FALSE,2.5999999046325684,7,6,0.3184999823570251,0,36,49,3.3196983337402344,677,49,27
FALSE,2.5999999046325684,7,5,0.2339999973773956,0,25,5,4.019298553466797,55,5,27
TRUE,2.5999999046325684,7,6,0.3184999823570251,0,-10,50,2.418999671936035,667,50,27
FALSE,4.800000190734863,7,1,0,1,1,51,1.3528001308441162,668,51,27
FALSE,4.800000190734863,7,2,0,1,4,52,1.4363999366760254,672,52,27
FALSE,2.5999999046325684,7,4,0.1624999940395355,0,16,53,2.670799493789673,688,53,27
FALSE,4.800000190734863,7,1,0,1,1,54,1.753400206565857,689,54,27
FALSE,4.800000190734863,7,1,0,1,1,55,1.636100172996521,690,55,27
FALSE,2.5999999046325684,7,8,0.5264999270439148,0,64,56,2.7693002223968506,754,56,27
FALSE,4.800000190734863,7,1,0,1,1,57,0.9193001985549928,755,57,27
FALSE,4.800000190734863,7,1,0,1,1,58,1.0535999536514282,756,58,27
FALSE,2.5999999046325684,7,5,0.2339999973773956,0,25,59,1.9696999788284304,781,59,27
FALSE,4.800000190734863,7,5,0.4320000410079956,1,25,6,1.903399944,80,6,27
FALSE,2.5999999046325684,7,4,0.1624999940395355,0,16,60,1.9538003206253047,0,60,27
FALSE,4.800000190734863,7,1,0,1,1,61,1.703300118,1,61,27
FALSE,2.5999999046325684,7,5,0.2339999973773956,0,25,62,2.203699111938477,26,62,27
FALSE,2.5999999046325684,7,4,0.1624999940395355,0,16,63,1.936100006103516,42,63,27
FALSE,2.5999999046325684,7,6,0.3184999823570251,0,36,64,2.8704986572265625,78,64,27
FALSE,4.800000190734863,7,1,0,1,1,65,0.8695000410079956,79,65,27
FALSE,2.5999999046325684,7,6,0.3184999823570251,0,36,66,3.335998773574829,115,66,27
FALSE,2.5999999046325684,7,5,0.2339999973773956,0,25,67,4.185999393463135,140,67,27
FALSE,2.5999999046325684,7,4,0.1624999940395355,0,16,68,5.019599437713623,156,68,27
FALSE,4.800000190734863,7,1,0,1,1,69,0.953499973,157,69,27
TRUE,4.800000190734863,7,8,0.9719999432563782,1,-10,7,5.086198329925537,70,7,27
TRUE,2.5999999046325684,7,5,0.2339999973773956,0,-10,70,3.2527999877929688,147,70,27
FALSE,4.800000190734863,7,2,0,1,4,71,1.7035001516342163,151,71,27
FALSE,4.800000190734863,7,1,0,1,1,72,2.934699296951294,152,72,27
FALSE,2.5999999046325684,7,7,0.4160000085830688,0,49,73,2.9200990200042725,201,73,27
FALSE,4.800000190734863,7,2,0,1,4,74,1.2035001516342163,205,74,27
FALSE,4.800000190734863,7,1,0,1,1,75,1.053300142288208,206,75,27
FALSE,4.800000190734863,7,1,0,1,1,76,1.7369002103805542,207,76,27
FALSE,4.800000190734863,7,1,0,1,1,77,1.286099910736084,208,77,27
FALSE,2.5999999046325684,7,6,0.3184999823570251,0,36,78,2.652699708938598,244,78,27
FALSE,4.800000190734863,7,1,0,1,1,79,1.3206998109817505,245,79,27
FALSE,2.5999999046325684,7,8,0.5264999270439148,0,64,8,2.853398561477661,134,8,27
FALSE,4.800000190734863,7,2,0,1,4,80,1.152999758720398,249,80,27
FALSE,2.5999999046325684,7,6,0.3184999823570251,0,36,81,3.019798994064331,285,81,27
TRUE,2.5999999046325684,7,7,0.4160000085830688,0,-10,82,5.435998439788818,275,82,27
FALSE,4.800000190734863,7,3,0.1920000165700912,1,9,83,1.9872002601623533,284,83,27
FALSE,4.800000190734863,7,1,0,1,1,84,1.2375000715255735,285,84,27
FALSE,2.5999999046325684,7,7,0.4160000085830688,0,49,85,4.770198822021484,334,85,27
FALSE,4.800000190734863,7,3,0.1920000165700912,1,9,86,2.219300508499145,343,86,27
FALSE,4.800000190734863,7,1,0,1,1,87,0.8035999536514282,344,87,27
FALSE,4.800000190734863,7,1,0,1,1,88,1.169800043106079,345,88,27
FALSE,4.800000190734863,7,2,0,1,4,89,2.286200046539306,349,89,27
TRUE,4.800000190734863,7,6,0.5879999995231628,1,-10,9,3.337299108505249,124,9,27
FALSE,4.800000190734863,7,1,0,1,1,90,1.236799955368042,350,90,27
FALSE,2.5999999046325684,7,6,0.3184999823570251,0,36,91,2.6862988471984863,386,91,27
FALSE,2.5999999046325684,7,4,0.1624999940395355,0,16,92,2.286799192428589,402,92,27
FALSE,2.5999999046325684,7,7,0.4160000085830688,0,49,93,2.319699526,451,93,27
FALSE,2.5999999046325684,7,4,0.1624999940395355,0,16,94,2.203000783920288,467,94,27
FALSE,2.5999999046325684,7,5,0.2339999973773956,0,25,95,2.386699676513672,492,95,27
FALSE,4.800000190734863,7,3,0.1920000165700912,1,9,96,4.495299339294434,501,96,27
FALSE,2.5999999046325684,7,7,0.4160000085830688,0,49,97,2.419300079345703,550,97,27
FALSE,2.5999999046325684,7,4,0.1624999940395355,0,16,98,1.9685001373291016,566,98,27
FALSE,2.5999999046325684,7,6,0.3184999823570251,0,36,99,2.920600414276123,602,99,27
FALSE,4.800000190734863,7,3,0.1920000165700912,1,9,1,2.5199992656707764,9,121,27
FALSE,2.5999999046325684,7,6,0.3184999823570251,0,36,10,2.403799533843994,203,130,27
FALSE,2.5999999046325684,7,6,0.3184999823570251,0,36,11,2.469400167,239,131,27
TRUE,2.5999999046325684,7,6,0.3184999823570251,0,-10,12,3.969899892807007,229,132,27
FALSE,4.800000190734863,7,3,0.1920000165700912,1,9,13,1.585599660873413,238,133,27
FALSE,2.5999999046325684,7,7,0.4160000085830688,0,49,14,2.1702992916107178,287,134,27
FALSE,2.5999999046325684,7,6,0.3184999823570251,0,36,15,2.086399793624878,323,135,27
FALSE,2.5999999046325684,7,6,0.3184999823570251,0,36,16,2.2708990573883057,359,136,27
FALSE,4.800000190734863,7,3,0.1920000165700912,1,9,17,1.7354000806808472,368,137,27
FALSE,2.5999999046325684,7,6,0.3184999823570251,0,36,18,2.47019887,404,138,27
FALSE,4.800000190734863,7,4,0.3000000119209289,1,16,19,2.386899233,420,139,27
FALSE,2.5999999046325684,7,5,0.2339999973773956,0,25,2,2.4198999404907227,34,122,27
FALSE,2.5999999046325684,7,7,0.4160000085830688,0,49,20,3.502599239349365,469,140,27
TRUE,2.5999999046325684,7,6,0.3184999823570251,0,-10,21,2.053600311279297,459,141,27
FALSE,4.800000190734863,7,3,0.1920000165700912,1,9,22,1.5038999319076538,468,142,27
FALSE,4.800000190734863,7,3,0.1920000165700912,1,9,23,2.353300333023072,477,143,27
FALSE,4.800000190734863,7,3,0.1920000165700912,1,9,24,1.303300142288208,486,144,27
TRUE,4.800000190734863,7,3,0.1920000165700912,1,-10,25,1.5530999898910522,476,145,27
FALSE,4.800000190734863,7,3,0.1920000165700912,1,9,26,1.3523999452590942,485,146,27
FALSE,4.800000190734863,7,3,0.1920000165700912,1,9,27,1.5354005098342896,494,147,27
FALSE,4.800000190734863,7,3,0.1920000165700912,1,9,28,2.5876002311706543,503,148,27
FALSE,2.5999999046325684,7,7,0.4160000085830688,0,49,29,2.520899534225464,552,149,27
FALSE,2.5999999046325684,7,5,0.2339999973773956,0,25,3,2.769200801849365,59,123,27
FALSE,2.5999999046325684,7,6,0.3184999823570251,0,36,30,2.8704991340637207,588,150,27
FALSE,4.800000190734863,7,3,0.1920000165700912,1,9,4,1.9188001155853271,68,124,27
FALSE,2.5999999046325684,7,6,0.3184999823570251,0,36,5,2.3699004650115967,104,125,27
FALSE,4.800000190734863,7,3,0.1920000165700912,1,9,6,2.1704001426696777,113,126,27
FALSE,2.5999999046325684,7,6,0.3184999823570251,0,36,7,2.553999900817871,149,127,27
FALSE,4.800000190734863,7,3,0.1920000165700912,1,9,8,1.7369996309280396,158,128,27
FALSE,4.800000190734863,7,3,0.1920000165700912,1,9,9,1.386199951171875,167,129,27
TRUE,2.5999999046325684,7,5,0.2339999973773956,0,-10,1,6.186794757843018,-10,1,28
FALSE,2.5999999046325684,7,4,0.1624999940395355,0,16,10,1.9535000324249268,20,10,28
FALSE,4.800000190734863,7,3,0.1920000165700912,1,9,100,1.266700029373169,336,100,28
FALSE,4.800000190734863,7,3,0.1920000165700912,1,9,101,1.1295000314712524,345,101,28
FALSE,2.5999999046325684,7,4,0.1624999940395355,0,16,102,2.219899892807007,361,102,28
FALSE,4.800000190734863,7,3,0.1920000165700912,1,9,103,1.1340000629425049,370,103,28
FALSE,4.800000190734863,7,3,0.1920000165700912,1,9,104,1.0691001415252686,379,104,28
FALSE,4.800000190734863,7,3,0.1920000165700912,1,9,105,1.1199997663497925,388,105,28
FALSE,4.800000190734863,7,3,0.1920000165700912,1,9,106,1.135200023651123,397,106,28
FALSE,4.800000190734863,7,3,0.1920000165700912,1,9,107,1.2543998956680298,406,107,28
FALSE,2.5999999046325684,7,5,0.2339999973773956,0,25,108,4.051498889923096,431,108,28
FALSE,2.5999999046325684,7,5,0.2339999973773956,0,25,109,1.685199737548828,456,109,28
TRUE,2.5999999046325684,7,4,0.1624999940395355,0,-10,11,2.202998876571656,10,11,28
FALSE,2.5999999046325684,7,4,0.1624999940395355,0,16,110,1.5716997385025024,472,110,28
FALSE,2.5999999046325684,7,5,0.2339999973773956,0,25,111,1.602399826049805,497,111,28
FALSE,2.5999999046325684,7,6,0.3184999823570251,0,36,112,2.2174997329711914,533,112,28
FALSE,2.5999999046325684,7,5,0.2339999973773956,0,25,113,1.5681999921798706,558,113,28
FALSE,2.5999999046325684,7,5,0.2339999973773956,0,25,114,1.6018999814987185,583,114,28
TRUE,4.800000190734863,7,3,0.1920000165700912,1,-10,115,1.1990004777908323,573,115,28
FALSE,2.5999999046325684,7,4,0.1624999940395355,0,16,116,1.7019001245498655,589,116,28
FALSE,4.800000190734863,7,3,0.1920000165700912,1,9,117,1.102500081062317,598,117,28
TRUE,4.800000190734863,7,3,0.1920000165700912,1,-10,118,1.2185001373291016,588,118,28
FALSE,2.5999999046325684,7,5,0.2339999973773956,0,25,119,1.866199851036072,613,119,28
FALSE,4.800000190734863,7,4,0.3000000119209289,1,16,12,2.153599500656128,26,12,28
FALSE,4.800000190734863,7,3,0.1920000165700912,1,9,120,1.6706997156143188,622,120,28
TRUE,4.800000190734863,7,4,0.3000000119209289,1,-10,13,1.5530999898910522,16,13,28
TRUE,4.800000190734863,7,3,0.1920000165700912,1,-10,14,1.8856998682022093,6,14,28
FALSE,2.5999999046325684,7,4,0.1624999940395355,0,16,15,1.688300371170044,22,15,28
FALSE,2.5999999046325684,7,4,0.1624999940395355,0,16,16,4.486998558044434,38,16,28
FALSE,2.5999999046325684,7,3,0.1040000021457672,0,9,17,2.336899280548096,47,17,28
FALSE,2.5999999046325684,7,4,0.1624999940395355,0,16,18,2.8528997898101807,63,18,28
FALSE,4.800000190734863,7,2,0,1,4,19,2.437000274658203,67,19,28
TRUE,4.800000190734863,7,5,0.4320000410079956,1,-10,2,3.170098304748535,-20,2,28
TRUE,2.5999999046325684,7,4,0.1624999940395355,0,-10,20,1.9042000770568848,57,20,28
FALSE,2.5999999046325684,7,3,0.1040000021457672,0,9,21,1.686199665,66,21,28
FALSE,2.5999999046325684,7,4,0.1624999940395355,0,16,22,1.9528998136520384,82,22,28
TRUE,4.800000190734863,7,3,0.1920000165700912,1,-10,23,1.5857998132705688,72,23,28
FALSE,4.800000190734863,7,3,0.1920000165700912,1,9,24,2.0029995441436768,81,24,28
FALSE,2.5999999046325684,7,4,0.1624999940395355,0,16,25,1.686500072479248,97,25,28
FALSE,2.5999999046325684,7,4,0.1624999940395355,0,16,26,1.4863996505737305,113,26,28
FALSE,2.5999999046325684,7,4,0.1624999940395355,0,16,27,1.4701995849609375,129,27,28
FALSE,4.800000190734863,7,2,0,1,4,28,1.5866998434066772,133,28,28
FALSE,4.800000190734863,7,3,0.1920000165700912,1,9,29,1.286199927330017,142,29,28
FALSE,4.800000190734863,7,3,0.1920000165700912,1,9,3,2.503898859024048,-11,3,28
FALSE,4.800000190734863,7,3,0.1920000165700912,1,9,30,1.2534000873565674,151,30,28
FALSE,4.800000190734863,7,3,0.1920000165700912,1,9,31,1.1529998779296875,160,31,28
FALSE,4.800000190734863,7,4,0.3000000119209289,1,16,32,2.187300205230713,176,32,28
FALSE,2.5999999046325684,7,4,0.1624999940395355,0,16,33,1.785499930381775,192,33,28
FALSE,2.5999999046325684,7,5,0.2339999973773956,0,25,34,1.7865999937057495,217,34,28
FALSE,2.5999999046325684,7,5,0.2339999973773956,0,25,35,1.8036997318267824,242,35,28
FALSE,4.800000190734863,7,3,0.1920000165700912,1,9,36,1.4366000890731812,251,36,28
TRUE,2.5999999046325684,7,5,0.2339999973773956,0,-10,37,2.452699661254883,241,37,28
FALSE,4.800000190734863,7,3,0.1920000165700912,1,9,38,1.301200032234192,250,38,28
FALSE,4.800000190734863,7,3,0.1920000165700912,1,9,39,1.2700999975204468,259,39,28
FALSE,2.5999999046325684,7,3,0.1040000021457672,0,9,4,1.9025999307632449,-2,4,28
TRUE,2.5999999046325684,7,5,0.2339999973773956,0,-10,40,1.8708001375198364,249,40,28
FALSE,4.800000190734863,7,3,0.1920000165700912,1,9,41,1.937099933624268,258,41,28
TRUE,4.800000190734863,7,4,0.3000000119209289,1,-10,42,3.2051985263824463,248,42,28
FALSE,4.800000190734863,7,3,0.1920000165700912,1,9,43,1.367800474,257,43,28
FALSE,2.5999999046325684,7,4,0.1624999940395355,0,16,44,1.7863996028900146,273,44,28
FALSE,4.800000190734863,7,3,0.1920000165700912,1,9,45,1.602100133895874,282,45,28
TRUE,2.5999999046325684,7,4,0.1624999940395355,0,-10,46,1.652099847793579,272,46,28
FALSE,4.800000190734863,7,3,0.1920000165700912,1,9,47,1.521799921989441,281,47,28
FALSE,2.5999999046325684,7,4,0.1624999940395355,0,16,48,1.801999807357788,297,48,28
FALSE,2.5999999046325684,7,5,0.2339999973773956,0,25,49,3.3701982498168945,322,49,28
TRUE,2.5999999046325684,7,4,0.1624999940395355,0,-10,5,1.7190998792648315,-12,5,28
FALSE,2.5999999046325684,7,5,0.2339999973773956,0,25,50,1.8180996179580688,347,50,28
FALSE,4.800000190734863,7,3,0.1920000165700912,1,9,51,2.486000299453736,356,51,28
FALSE,4.800000190734863,7,3,0.1920000165700912,1,9,52,1.4358997344970703,365,52,28
TRUE,2.5999999046325684,7,6,0.3184999823570251,0,-10,53,2.319599866867065,355,53,28
TRUE,4.800000190734863,7,6,0.5879999995231628,1,-10,54,2.7368996143341064,345,54,28
TRUE,4.800000190734863,7,6,0.5879999995231628,1,-10,55,2.866299867630005,335,55,28
FALSE,2.5999999046325684,7,6,0.3184999823570251,0,36,56,2.0363998413085938,371,56,28
FALSE,4.800000190734863,7,3,0.1920000165700912,1,9,57,2.101299763,380,57,28
TRUE,4.800000190734863,7,4,0.3000000119209289,1,-10,58,1.9345998764038088,370,58,28
FALSE,2.5999999046325684,7,6,0.3184999823570251,0,36,59,2.269700050354004,406,59,28
FALSE,4.800000190734863,7,1,0,1,1,6,0.569100022,-11,6,28
FALSE,2.5999999046325684,7,6,0.3184999823570251,0,36,60,2.3520004749298096,0,60,28
FALSE,4.800000190734863,7,3,0.1920000165700912,1,9,61,1.4199997186660769,9,61,28
TRUE,2.5999999046325684,7,6,0.3184999823570251,0,-10,62,2.670498847961426,-1,62,28
FALSE,2.5999999046325684,7,4,0.1624999940395355,0,16,63,2.335799694,15,63,28
TRUE,2.5999999046325684,7,5,0.2339999973773956,0,-10,64,1.8347002267837524,5,64,28
FALSE,4.800000190734863,7,3,0.1920000165700912,1,9,65,1.4545997381210327,14,65,28
FALSE,2.5999999046325684,7,4,0.1624999940395355,0,16,66,1.5184998512268066,30,66,28
TRUE,2.5999999046325684,7,4,0.1624999940395355,0,-10,67,2.021099567,20,67,28
TRUE,2.5999999046325684,7,5,0.2339999973773956,0,-10,68,1.9193000793457031,10,68,28
FALSE,4.800000190734863,7,3,0.1920000165700912,1,9,69,1.085100173950195,19,69,28
FALSE,4.800000190734863,7,4,0.3000000119209289,1,16,7,2.9857990741729736,5,7,28
TRUE,2.5999999046325684,7,4,0.1624999940395355,0,-10,70,1.3864001035690308,9,70,28
FALSE,4.800000190734863,7,3,0.1920000165700912,1,9,71,1.9364005327224727,18,71,28
FALSE,4.800000190734863,7,3,0.1920000165700912,1,9,72,1.2700998783111572,27,72,28
FALSE,2.5999999046325684,7,4,0.1624999940395355,0,16,73,1.7836997509002686,43,73,28
FALSE,4.800000190734863,7,3,0.1920000165700912,1,9,74,1.4530000686645508,52,74,28
FALSE,4.800000190734863,7,3,0.1920000165700912,1,9,75,1.5680001974105835,61,75,28
FALSE,4.800000190734863,7,3,0.1920000165700912,1,9,76,1.2522999048233032,70,76,28
FALSE,4.800000190734863,7,3,0.1920000165700912,1,9,77,1.168799877166748,79,77,28
FALSE,2.5999999046325684,7,5,0.2339999973773956,0,25,78,2.8025991916656494,104,78,28
FALSE,4.800000190734863,7,3,0.1920000165700912,1,9,79,1.3859999179840088,113,79,28
FALSE,2.5999999046325684,7,3,0.1040000021457672,0,9,8,2.9193992614746094,14,8,28
FALSE,4.800000190734863,7,3,0.1920000165700912,1,9,80,1.2522000074386597,122,80,28
FALSE,2.5999999046325684,7,5,0.2339999973773956,0,25,81,1.9520002603530884,147,81,28
TRUE,2.5999999046325684,7,4,0.1624999940395355,0,-10,82,1.7195994853973389,137,82,28
FALSE,4.800000190734863,7,3,0.1920000165700912,1,9,83,1.3200000524520874,146,83,28
FALSE,4.800000190734863,7,3,0.1920000165700912,1,9,84,1.1530998945236206,155,84,28
FALSE,2.5999999046325684,7,5,0.2339999973773956,0,25,85,1.8706001043319704,180,85,28
FALSE,4.800000190734863,7,3,0.1920000165700912,1,9,86,1.2188999652862549,189,86,28
FALSE,4.800000190734863,7,3,0.1920000165700912,1,9,87,2.103799582,198,87,28
FALSE,4.800000190734863,7,3,0.1920000165700912,1,9,88,1.0543001890182495,207,88,28
TRUE,4.800000190734863,7,3,0.1920000165700912,1,-10,89,1.102099895477295,197,89,28
TRUE,4.800000190734863,7,4,0.3000000119209289,1,-10,9,2.152599573135376,4,9,28
FALSE,4.800000190734863,7,3,0.1920000165700912,1,9,90,1.4539000988006592,206,90,28
FALSE,2.5999999046325684,7,5,0.2339999973773956,0,25,91,1.950999975204468,231,91,28
FALSE,2.5999999046325684,7,5,0.2339999973773956,0,25,92,1.5362995862960815,256,92,28
FALSE,2.5999999046325684,7,4,0.1624999940395355,0,16,93,1.4182997941970823,272,93,28
TRUE,2.5999999046325684,7,5,0.2339999973773956,0,-10,94,1.635799765586853,262,94,28
FALSE,2.5999999046325684,7,4,0.1624999940395355,0,16,95,1.6375999450683594,278,95,28
FALSE,4.800000190734863,7,3,0.1920000165700912,1,9,96,1.305000066757202,287,96,28
FALSE,2.5999999046325684,7,5,0.2339999973773956,0,25,97,1.7533001899719238,312,97,28
TRUE,2.5999999046325684,7,7,0.4160000085830688,0,-10,98,2.202199697494507,302,98,28
FALSE,2.5999999046325684,7,5,0.2339999973773956,0,25,99,1.601199746131897,327,99,28
FALSE,4.800000190734863,7,3,0.1920000165700912,1,9,1,2.286299467086792,9,121,28
FALSE,2.5999999046325684,7,5,0.2339999973773956,0,25,10,1.6527000665664673,177,130,28
FALSE,2.5999999046325684,7,5,0.2339999973773956,0,25,11,1.6041001081466677,202,131,28
TRUE,2.5999999046325684,7,5,0.2339999973773956,0,-10,12,1.4524998664855957,192,132,28
FALSE,4.800000190734863,7,3,0.1920000165700912,1,9,13,1.4344998598098757,201,133,28
FALSE,2.5999999046325684,7,5,0.2339999973773956,0,25,14,1.6354002952575684,226,134,28
FALSE,2.5999999046325684,7,5,0.2339999973773956,0,25,15,1.5520998239517212,251,135,28
FALSE,2.5999999046325684,7,6,0.3184999823570251,0,36,16,2.004300355911255,287,136,28
FALSE,4.800000190734863,7,3,0.1920000165700912,1,9,17,1.401200294494629,296,137,28
FALSE,2.5999999046325684,7,6,0.3184999823570251,0,36,18,1.952200174331665,332,138,28
FALSE,4.800000190734863,7,4,0.3000000119209289,1,16,19,1.5700002908706665,348,139,28
FALSE,2.5999999046325684,7,5,0.2339999973773956,0,25,2,2.602800130844116,34,122,28
FALSE,2.5999999046325684,7,6,0.3184999823570251,0,36,20,1.8364999294281008,384,140,28
TRUE,2.5999999046325684,7,5,0.2339999973773956,0,-10,21,1.9356998205184937,374,141,28
FALSE,4.800000190734863,7,3,0.1920000165700912,1,9,22,1.4838002920150757,383,142,28
FALSE,4.800000190734863,7,3,0.1920000165700912,1,9,23,1.3530999422073364,392,143,28
FALSE,4.800000190734863,7,3,0.1920000165700912,1,9,24,1.3528002500534058,401,144,28
TRUE,4.800000190734863,7,3,0.1920000165700912,1,-10,25,1.3507999181747437,391,145,28
FALSE,4.800000190734863,7,3,0.1920000165700912,1,9,26,1.386799931526184,400,146,28
FALSE,4.800000190734863,7,3,0.1920000165700912,1,9,27,1.3178999423980713,409,147,28
FALSE,4.800000190734863,7,3,0.1920000165700912,1,9,28,1.386799693107605,418,148,28
FALSE,2.5999999046325684,7,5,0.2339999973773956,0,25,29,1.920300364494324,443,149,28
FALSE,2.5999999046325684,7,5,0.2339999973773956,0,25,3,1.7556999921798706,59,123,28
FALSE,2.5999999046325684,7,5,0.2339999973773956,0,25,30,1.7200000286102295,468,150,28
FALSE,4.800000190734863,7,3,0.1920000165700912,1,9,4,1.5034000873565674,68,124,28
FALSE,2.5999999046325684,7,5,0.2339999973773956,0,25,5,1.6863996982574463,93,125,28
FALSE,4.800000190734863,7,3,0.1920000165700912,1,9,6,2.087399482727051,102,126,28
FALSE,2.5999999046325684,7,5,0.2339999973773956,0,25,7,1.918500065803528,127,127,28
FALSE,4.800000190734863,7,3,0.1920000165700912,1,9,8,1.501500129699707,136,128,28
FALSE,4.800000190734863,7,4,0.3000000119209289,1,16,9,1.6864001750946045,152,129,28
FALSE,2.5999999046325684,7,9,0.6499999761581421,0,81,1,2.4309990406036377,81,1,29
FALSE,2.5999999046325684,7,9,0.6499999761581421,0,81,10,2.646998882293701,348,10,29
FALSE,4.800000190734863,7,5,0.4320000410079956,1,25,100,4.393999099731445,668,100,29
FALSE,4.800000190734863,7,5,0.4320000410079956,1,25,101,3.3659985065460205,693,101,29
TRUE,2.5999999046325684,7,9,0.6499999761581421,0,-10,102,2.6329996585845947,683,102,29
FALSE,4.800000190734863,7,5,0.4320000410079956,1,25,103,4.297998905181885,708,103,29
TRUE,4.800000190734863,7,5,0.4320000410079956,1,-10,104,1.7309999465942385,698,104,29
FALSE,4.800000190734863,7,5,0.4320000410079956,1,25,105,3.7299978733062735,723,105,29
TRUE,4.800000190734863,7,6,0.5879999995231628,1,-10,106,2.247999191,713,106,29
TRUE,4.800000190734863,7,5,0.4320000410079956,1,-10,107,15.833016395568848,703,107,29
TRUE,2.5999999046325684,7,9,0.6499999761581421,0,-10,108,3.698998212814331,693,108,29
FALSE,2.5999999046325684,7,9,0.6499999761581421,0,81,109,2.815998315811157,774,109,29
TRUE,2.5999999046325684,7,9,0.6499999761581421,0,-10,11,2.0629994869232178,338,11,29
FALSE,2.5999999046325684,7,9,0.6499999761581421,0,81,110,3.2139980792999268,855,110,29
TRUE,2.5999999046325684,7,9,0.6499999761581421,0,-10,111,13.290019989013672,845,111,29
TRUE,2.5999999046325684,7,9,0.6499999761581421,0,-10,112,3.9809980392456055,835,112,29
TRUE,2.5999999046325684,7,9,0.6499999761581421,0,-10,113,8.296004295349121,825,113,29
TRUE,2.5999999046325684,7,9,0.6499999761581421,0,-10,114,2.652998447418213,815,114,29
FALSE,4.800000190734863,7,5,0.4320000410079956,1,25,115,2.0809991359710693,840,115,29
TRUE,2.5999999046325684,7,9,0.6499999761581421,0,-10,116,8.503006935119629,830,116,29
TRUE,4.800000190734863,7,5,0.4320000410079956,1,-10,117,11.967019081115724,820,117,29
FALSE,4.800000190734863,7,5,0.4320000410079956,1,25,118,8.029005051,845,118,29
TRUE,2.5999999046325684,7,9,0.6499999761581421,0,-10,119,3.014998197555542,835,119,29
TRUE,4.800000190734863,7,5,0.4320000410079956,1,-10,12,1.3099998235702517,328,12,29
TRUE,4.800000190734863,7,5,0.4320000410079956,1,-10,120,4.764998912811279,825,120,29
TRUE,4.800000190734863,7,5,0.4320000410079956,1,-10,13,1.7309995889663696,318,13,29
FALSE,4.800000190734863,7,6,0.5879999995231628,1,36,14,3.0469985008239746,354,14,29
TRUE,2.5999999046325684,7,9,0.6499999761581421,0,-10,15,2.421999693,344,15,29
TRUE,2.5999999046325684,7,9,0.6499999761581421,0,-10,16,2.429999351501465,334,16,29
TRUE,2.5999999046325684,7,9,0.6499999761581421,0,-10,17,1.9949995279312127,324,17,29
TRUE,2.5999999046325684,7,9,0.6499999761581421,0,-10,18,2.2959988117218018,314,18,29
FALSE,4.800000190734863,7,6,0.5879999995231628,1,36,19,2.004999638,350,19,29
FALSE,4.800000190734863,7,5,0.4320000410079956,1,25,2,1.5469998121261597,106,2,29
TRUE,2.5999999046325684,7,9,0.6499999761581421,0,-10,20,2.112999200820923,340,20,29
FALSE,2.5999999046325684,7,9,0.6499999761581421,0,81,21,2.427999496459961,421,21,29
FALSE,2.5999999046325684,7,8,0.5264999270439148,0,64,22,1.9979994297027588,485,22,29
TRUE,4.800000190734863,7,6,0.5879999995231628,1,-10,23,1.7059991359710691,475,23,29
FALSE,4.800000190734863,7,5,0.4320000410079956,1,25,24,1.430999517440796,500,24,29
TRUE,2.5999999046325684,7,9,0.6499999761581421,0,-10,25,1.7799993753433228,490,25,29
TRUE,2.5999999046325684,7,9,0.6499999761581421,0,-10,26,2.650999069213867,480,26,29
TRUE,2.5999999046325684,7,9,0.6499999761581421,0,-10,27,1.6309995651245115,470,27,29
TRUE,4.800000190734863,7,9,1.2000000476837158,1,-10,28,1.5939993858337402,460,28,29
TRUE,4.800000190734863,7,5,0.4320000410079956,1,-10,29,1.8109992742538448,450,29,29
FALSE,4.800000190734863,7,5,0.4320000410079956,1,25,3,1.999999046325684,131,3,29
FALSE,4.800000190734863,7,6,0.5879999995231628,1,36,30,1.3279999494552612,486,30,29
TRUE,4.800000190734863,7,6,0.5879999995231628,1,-10,31,1.8249995708465576,476,31,29
FALSE,4.800000190734863,7,6,0.5879999995231628,1,36,32,1.6909996271133425,512,32,29
FALSE,2.5999999046325684,7,9,0.6499999761581421,0,81,33,2.296999216079712,593,33,29
FALSE,2.5999999046325684,7,1,0,0,1,34,2.3689990043640137,594,34,29
FALSE,2.5999999046325684,7,9,0.6499999761581421,0,81,35,3.262997866,675,35,29
TRUE,4.800000190734863,7,6,0.5879999995231628,1,-10,36,18.499061584472656,665,36,29
TRUE,2.5999999046325684,7,9,0.6499999761581421,0,-10,37,2.659998655319214,655,37,29
TRUE,4.800000190734863,7,6,0.5879999995231628,1,-10,38,1.6159998178482056,645,38,29
TRUE,4.800000190734863,7,5,0.4320000410079956,1,-10,39,1.2509998083114624,635,39,29
TRUE,2.5999999046325684,7,9,0.6499999761581421,0,-10,4,1.9299997091293333,121,4,29
TRUE,2.5999999046325684,7,9,0.6499999761581421,0,-10,40,2.3789989948272705,625,40,29
FALSE,4.800000190734863,7,5,0.4320000410079956,1,25,41,21.49912452697754,650,41,29
TRUE,4.800000190734863,7,5,0.4320000410079956,1,-10,42,2.077999353408813,640,42,29
TRUE,4.800000190734863,7,5,0.4320000410079956,1,-10,43,4.697000026702881,630,43,29
TRUE,2.5999999046325684,7,9,0.6499999761581421,0,-10,44,3.019998788833618,620,44,29
TRUE,4.800000190734863,7,5,0.4320000410079956,1,-10,45,1.247999906539917,610,45,29
FALSE,2.5999999046325684,7,9,0.6499999761581421,0,81,46,2.8049983978271484,691,46,29
TRUE,4.800000190734863,7,5,0.4320000410079956,1,-10,47,2.748998641967773,681,47,29
FALSE,2.5999999046325684,7,9,0.6499999761581421,0,81,48,4.796998023986816,762,48,29
FALSE,2.5999999046325684,7,9,0.6499999761581421,0,81,49,3.1089980602264404,843,49,29
TRUE,2.5999999046325684,7,9,0.6499999761581421,0,-10,5,1.979999542236328,111,5,29
FALSE,2.5999999046325684,7,9,0.6499999761581421,0,81,50,2.7449989318847656,924,50,29
FALSE,4.800000190734863,7,5,0.4320000410079956,1,25,51,1.864999413490296,949,51,29
FALSE,4.800000190734863,7,5,0.4320000410079956,1,25,52,1.4969998598098757,974,52,29
FALSE,2.5999999046325684,7,9,0.6499999761581421,0,81,53,1.9189996719360352,1055,53,29
TRUE,4.800000190734863,7,5,0.4320000410079956,1,-10,54,1.5139994621276855,1045,54,29
FALSE,4.800000190734863,7,5,0.4320000410079956,1,25,55,1.8119993209838867,1070,55,29
TRUE,2.5999999046325684,7,9,0.6499999761581421,0,-10,56,2.6779990196228027,1060,56,29
FALSE,4.800000190734863,7,5,0.4320000410079956,1,25,57,1.313999891281128,1085,57,29
TRUE,4.800000190734863,7,5,0.4320000410079956,1,-10,58,1.312999963760376,1075,58,29
FALSE,2.5999999046325684,7,9,0.6499999761581421,0,81,59,4.176998138427734,1156,59,29
FALSE,4.800000190734863,7,5,0.4320000410079956,1,25,6,1.5949995517730713,136,6,29
TRUE,2.5999999046325684,7,9,0.6499999761581421,0,-10,60,2.8789987564086914,0,60,29
FALSE,4.800000190734863,7,5,0.4320000410079956,1,25,61,2.712999105453491,25,61,29
TRUE,2.5999999046325684,7,9,0.6499999761581421,0,-10,62,2.624999046325684,15,62,29
FALSE,2.5999999046325684,7,9,0.6499999761581421,0,81,63,3.445997953414917,96,63,29
TRUE,2.5999999046325684,7,9,0.6499999761581421,0,-10,64,2.392998695373535,86,64,29
FALSE,4.800000190734863,7,5,0.4320000410079956,1,25,65,1.6619993448257446,111,65,29
FALSE,2.5999999046325684,7,9,0.6499999761581421,0,81,66,2.351999282836914,192,66,29
TRUE,2.5999999046325684,7,9,0.6499999761581421,0,-10,67,4.179997444152832,182,67,29
TRUE,2.5999999046325684,7,9,0.6499999761581421,0,-10,68,4.110998153686523,172,68,29
TRUE,4.800000190734863,7,5,0.4320000410079956,1,-10,69,1.7459992170333862,162,69,29
FALSE,4.800000190734863,7,5,0.4320000410079956,1,25,7,1.397999644,161,7,29
TRUE,2.5999999046325684,7,9,0.6499999761581421,0,-10,70,4.731998920440674,152,70,29
FALSE,4.800000190734863,7,5,0.4320000410079956,1,25,71,1.6779993772506714,177,71,29
FALSE,4.800000190734863,7,6,0.5879999995231628,1,36,72,3.794997930526733,213,72,29
FALSE,2.5999999046325684,7,9,0.6499999761581421,0,81,73,3.4959986209869385,294,73,29
TRUE,4.800000190734863,7,5,0.4320000410079956,1,-10,74,6.762004852294922,284,74,29
TRUE,4.800000190734863,7,5,0.4320000410079956,1,-10,75,2.7959985733032227,274,75,29
TRUE,4.800000190734863,7,6,0.5879999995231628,1,-10,76,4.177998065948486,264,76,29
TRUE,4.800000190734863,7,5,0.4320000410079956,1,-10,77,9.629012108,254,77,29
FALSE,2.5999999046325684,7,9,0.6499999761581421,0,81,78,4.797999858856201,335,78,29
FALSE,4.800000190734863,7,5,0.4320000410079956,1,25,79,5.678000450134277,360,79,29
FALSE,2.5999999046325684,7,9,0.6499999761581421,0,81,8,1.9629991054534912,242,8,29
FALSE,4.800000190734863,7,5,0.4320000410079956,1,25,80,13.130017280578612,385,80,29
TRUE,2.5999999046325684,7,9,0.6499999761581421,0,-10,81,14.233022689819336,375,81,29
FALSE,2.5999999046325684,7,9,0.6499999761581421,0,81,82,2.597998857498169,456,82,29
FALSE,4.800000190734863,7,5,0.4320000410079956,1,25,83,2.241999626159668,481,83,29
TRUE,4.800000190734863,7,5,0.4320000410079956,1,-10,84,9.514012336730955,471,84,29
TRUE,2.5999999046325684,7,9,0.6499999761581421,0,-10,85,5.595000743865967,461,85,29
TRUE,4.800000190734863,7,5,0.4320000410079956,1,-10,86,2.1809990406036377,451,86,29
FALSE,4.800000190734863,7,5,0.4320000410079956,1,25,87,7.781005859,476,87,29
FALSE,4.800000190734863,7,5,0.4320000410079956,1,25,88,1.944999098777771,501,88,29
FALSE,4.800000190734863,7,5,0.4320000410079956,1,25,89,21.128114700317383,526,89,29
FALSE,4.800000190734863,7,5,0.4320000410079956,1,25,9,1.7959994077682495,267,9,29
FALSE,4.800000190734863,7,5,0.4320000410079956,1,25,90,2.397999048233032,551,90,29
TRUE,2.5999999046325684,7,9,0.6499999761581421,0,-10,91,2.6659984588623047,541,91,29
TRUE,2.5999999046325684,7,9,0.6499999761581421,0,-10,92,14.315014839172363,531,92,29
FALSE,2.5999999046325684,7,9,0.6499999761581421,0,81,93,4.927000045776367,612,93,29
TRUE,2.5999999046325684,7,9,0.6499999761581421,0,-10,94,8.449010848999023,602,94,29
TRUE,2.5999999046325684,7,9,0.6499999761581421,0,-10,95,2.3299989700317383,592,95,29
TRUE,4.800000190734863,7,6,0.5879999995231628,1,-10,96,1.4149998426437378,582,96,29
FALSE,2.5999999046325684,7,9,0.6499999761581421,0,81,97,128.6924285888672,663,97,29
TRUE,2.5999999046325684,7,9,0.6499999761581421,0,-10,98,6.464004993438721,653,98,29
TRUE,2.5999999046325684,7,9,0.6499999761581421,0,-10,99,2.878998041152954,643,99,29
FALSE,4.800000190734863,7,5,0.4320000410079956,1,25,1,3.511998176574707,25,121,29
FALSE,2.5999999046325684,7,1,0,0,1,10,7.020005226135254,90,130,29
FALSE,2.5999999046325684,7,8,0.5264999270439148,0,64,11,3.837998151779175,154,131,29
TRUE,2.5999999046325684,7,9,0.6499999761581421,0,-10,12,2.596999168395996,144,132,29
FALSE,4.800000190734863,7,5,0.4320000410079956,1,25,13,2.646998405456543,169,133,29
TRUE,2.5999999046325684,7,9,0.6499999761581421,0,-10,14,3.6379973888397217,159,134,29
TRUE,2.5999999046325684,7,9,0.6499999761581421,0,-10,15,3.7129976749420166,149,135,29
TRUE,2.5999999046325684,7,9,0.6499999761581421,0,-10,16,3.403997898101806,139,136,29
FALSE,4.800000190734863,7,5,0.4320000410079956,1,25,17,2.2579989433288574,164,137,29
FALSE,2.5999999046325684,7,1,0,0,1,18,1.232999563217163,165,138,29
FALSE,4.800000190734863,7,4,0.3000000119209289,1,16,19,1.713999629020691,181,139,29
TRUE,2.5999999046325684,7,8,0.5264999270439148,0,-10,2,3.113998413085937,15,122,29
TRUE,2.5999999046325684,7,9,0.6499999761581421,0,-10,20,3.564997911453247,171,140,29
TRUE,2.5999999046325684,7,8,0.5264999270439148,0,-10,21,5.464002609,161,141,29
FALSE,4.800000190734863,7,6,0.5879999995231628,1,36,22,1.359999656677246,197,142,29
FALSE,4.800000190734863,7,1,0,1,1,23,0.5799999237060547,198,143,29
TRUE,4.800000190734863,7,6,0.5879999995231628,1,-10,24,2.793999195098877,188,144,29
TRUE,4.800000190734863,7,5,0.4320000410079956,1,-10,25,4.178999423980713,178,145,29
FALSE,4.800000190734863,7,5,0.4320000410079956,1,25,26,2.6279988288879395,203,146,29
FALSE,4.800000190734863,7,4,0.3000000119209289,1,16,27,2.1469991207122803,219,147,29
FALSE,4.800000190734863,7,5,0.4320000410079956,1,25,28,2.2809998989105225,244,148,29
TRUE,2.5999999046325684,7,9,0.6499999761581421,0,-10,29,2.195999383926392,234,149,29
FALSE,2.5999999046325684,7,5,0.2339999973773956,0,25,3,1.8659995794296265,40,123,29
FALSE,2.5999999046325684,7,8,0.5264999270439148,0,64,30,2.809998750686645,298,150,29
FALSE,4.800000190734863,7,4,0.3000000119209289,1,16,4,4.393998146057129,56,124,29
FALSE,2.5999999046325684,7,1,0,0,1,5,2.5799994468688965,57,125,29
TRUE,4.800000190734863,7,5,0.4320000410079956,1,-10,6,2.996998310089112,47,126,29
FALSE,2.5999999046325684,7,1,0,0,1,7,4.982998371124268,48,127,29
FALSE,4.800000190734863,7,5,0.4320000410079956,1,25,8,3.469998598098755,73,128,29
FALSE,4.800000190734863,7,4,0.3000000119209289,1,16,9,3.646998405456543,89,129,29
FALSE,2.5999999046325684,7,5,0.2339999973773956,0,25,1,5.010494709014893,25,1,33
TRUE,2.5999999046325684,7,3,0.1040000021457672,0,-10,10,1.6895006895065308,13,10,33
FALSE,4.800000190734863,7,2,0,1,4,100,1.2552002668380735,162,100,33
FALSE,4.800000190734863,7,2,0,1,4,101,0.9711999893188475,166,101,33
FALSE,2.5999999046325684,7,3,0.1040000021457672,0,9,102,1.3223005533218384,175,102,33
FALSE,4.800000190734863,7,2,0,1,4,103,2.090001106262207,179,103,33
FALSE,4.800000190734863,7,2,0,1,4,104,2.396200180053711,183,104,33
FALSE,4.800000190734863,7,2,0,1,4,105,1.671900749206543,187,105,33
FALSE,4.800000190734863,7,2,0,1,4,106,1.1550002098083496,191,106,33
FALSE,4.800000190734863,7,2,0,1,4,107,0.8710999488830566,195,107,33
FALSE,2.5999999046325684,7,1,0,0,1,108,1.2055003643035889,196,108,33
FALSE,2.5999999046325684,7,2,0,0,4,109,0.8713001012802124,200,109,33
FALSE,2.5999999046325684,7,2,0,0,4,11,1.0718002319335938,17,11,33
FALSE,2.5999999046325684,7,2,0,0,4,110,2.190100908279419,204,110,33
FALSE,2.5999999046325684,7,2,0,0,4,111,2.5791001319885254,208,111,33
FALSE,2.5999999046325684,7,2,0,0,4,112,1.1887004375457764,212,112,33
FALSE,2.5999999046325684,7,2,0,0,4,113,0.9214001893997192,216,113,33
FALSE,2.5999999046325684,7,2,0,0,4,114,1.055299997329712,220,114,33
FALSE,4.800000190734863,7,2,0,1,4,115,1.923101187,224,115,33
FALSE,2.5999999046325684,7,3,0.1040000021457672,0,9,116,1.1880004405975342,233,116,33
FALSE,4.800000190734863,7,2,0,1,4,117,1.1051000356674194,237,117,33
FALSE,4.800000190734863,7,2,0,1,4,118,0.837800145,241,118,33
FALSE,2.5999999046325684,7,3,0.1040000021457672,0,9,119,0.9214001297950744,250,119,33
FALSE,4.800000190734863,7,2,0,1,4,12,1.372200608253479,21,12,33
FALSE,4.800000190734863,7,2,0,1,4,120,0.9548001289367676,254,120,33
FALSE,4.800000190734863,7,1,0,1,1,13,1.0880002975463867,22,13,33
FALSE,4.800000190734863,7,2,0,1,4,14,0.9214000701904296,26,14,33
FALSE,2.5999999046325684,7,1,0,0,1,15,1.1554001569747925,27,15,33
FALSE,2.5999999046325684,7,2,0,0,4,16,3.3912999629974365,31,16,33
FALSE,2.5999999046325684,7,2,0,0,4,17,1.0383000373840332,35,17,33
FALSE,2.5999999046325684,7,3,0.1040000021457672,0,9,18,1.8228009939193728,44,18,33
FALSE,4.800000190734863,7,1,0,1,1,19,2.096701145172119,45,19,33
TRUE,4.800000190734863,7,4,0.3000000119209289,1,-10,2,2.874199628829956,15,2,33
FALSE,2.5999999046325684,7,2,0,0,4,20,2.8477001190185547,49,20,33
FALSE,2.5999999046325684,7,2,0,0,4,21,2.223400592803955,53,21,33
FALSE,2.5999999046325684,7,1,0,0,1,22,1.0048002004623413,54,22,33
FALSE,4.800000190734863,7,2,0,1,4,23,1.6227004528045654,58,23,33
FALSE,4.800000190734863,7,1,0,1,1,24,1.1216002702713013,59,24,33
FALSE,2.5999999046325684,7,2,0,0,4,25,1.322500467300415,63,25,33
FALSE,2.5999999046325684,7,2,0,0,4,26,6.036092281341553,67,26,33
FALSE,2.5999999046325684,7,1,0,0,1,27,1.005100131034851,68,27,33
FALSE,4.800000190734863,7,2,0,1,4,28,1.6621010303497314,72,28,33
FALSE,4.800000190734863,7,1,0,1,1,29,0.8215001225471497,73,29,33
FALSE,4.800000190734863,7,2,0,1,4,3,2.389900922775269,19,3,33
FALSE,4.800000190734863,7,2,0,1,4,30,1.1881003379821775,77,30,33
FALSE,4.800000190734863,7,2,0,1,4,31,1.5224003791809082,81,31,33
FALSE,4.800000190734863,7,2,0,1,4,32,1.1450003385543823,85,32,33
FALSE,2.5999999046325684,7,1,0,0,1,33,1.121900200843811,86,33,33
FALSE,2.5999999046325684,7,2,0,0,4,34,0.7211000919342041,90,34,33
FALSE,2.5999999046325684,7,1,0,0,1,35,0.8375002145767212,91,35,33
FALSE,4.800000190734863,7,2,0,1,4,36,1.4388006925582886,95,36,33
FALSE,2.5999999046325684,7,3,0.1040000021457672,0,9,37,1.121800422668457,104,37,33
FALSE,4.800000190734863,7,2,0,1,4,38,1.3719005584716797,108,38,33
FALSE,4.800000190734863,7,1,0,1,1,39,0.9539999961853028,109,39,33
TRUE,2.5999999046325684,7,4,0.1624999940395355,0,-10,4,1.8396010398864744,9,4,33
FALSE,2.5999999046325684,7,3,0.1040000021457672,0,9,40,0.9046999216079712,118,40,33
FALSE,4.800000190734863,7,1,0,1,1,41,0.9715999960899352,119,41,33
FALSE,4.800000190734863,7,2,0,1,4,42,1.638900876045227,123,42,33
FALSE,4.800000190734863,7,2,0,1,4,43,1.0883005857467651,127,43,33
FALSE,2.5999999046325684,7,3,0.1040000021457672,0,9,44,1.0718001127243042,136,44,33
FALSE,4.800000190734863,7,2,0,1,4,45,0.9046000242233276,140,45,33
FALSE,2.5999999046325684,7,1,0,0,1,46,1.2555004358291626,141,46,33
FALSE,4.800000190734863,7,2,0,1,4,47,1.6556010246276855,145,47,33
FALSE,2.5999999046325684,7,3,0.1040000021457672,0,9,48,1.639000654220581,154,48,33
FALSE,2.5999999046325684,7,1,0,0,1,49,1.2053004503250122,155,49,33
FALSE,2.5999999046325684,7,2,0,0,4,5,1.038000226020813,13,5,33
FALSE,2.5999999046325684,7,1,0,0,1,50,1.3385002613067627,156,50,33
FALSE,4.800000190734863,7,2,0,1,4,51,2.7139995098114014,160,51,33
FALSE,4.800000190734863,7,1,0,1,1,52,0.7108001112937927,161,52,33
FALSE,2.5999999046325684,7,3,0.1040000021457672,0,9,53,1.087800145149231,170,53,33
FALSE,4.800000190734863,7,2,0,1,4,54,1.2385003566741943,174,54,33
FALSE,4.800000190734863,7,2,0,1,4,55,1.972601532936096,178,55,33
TRUE,2.5999999046325684,7,3,0.1040000021457672,0,-10,56,1.6223007440567017,168,56,33
FALSE,4.800000190734863,7,1,0,1,1,57,1.2884002923965454,169,57,33
FALSE,4.800000190734863,7,2,0,1,4,58,0.6539000272750854,173,58,33
FALSE,2.5999999046325684,7,2,0,0,4,59,0.9881001114845276,177,59,33
FALSE,4.800000190734863,7,1,0,1,1,6,1.3719005584716797,14,6,33
FALSE,2.5999999046325684,7,2,0,0,4,60,1.0718002319335938,0,60,33
FALSE,4.800000190734863,7,1,0,1,1,61,2.657500505447388,1,61,33
FALSE,2.5999999046325684,7,1,0,0,1,62,1.0716001987457275,2,62,33
FALSE,2.5999999046325684,7,2,0,0,4,63,1.188400149345398,6,63,33
FALSE,2.5999999046325684,7,2,0,0,4,64,1.7057006359100342,10,64,33
FALSE,4.800000190734863,7,1,0,1,1,65,1.3724005222320557,11,65,33
FALSE,2.5999999046325684,7,3,0.1040000021457672,0,9,66,3.0917000770568848,20,66,33
FALSE,2.5999999046325684,7,1,0,0,1,67,1.187900185585022,21,67,33
FALSE,2.5999999046325684,7,2,0,0,4,68,1.0216001272201538,25,68,33
FALSE,4.800000190734863,7,2,0,1,4,69,1.2218003273010254,29,69,33
FALSE,4.800000190734863,7,2,0,1,4,7,2.2233002185821533,18,7,33
FALSE,2.5999999046325684,7,3,0.1040000021457672,0,9,70,1.4556007385253906,38,70,33
FALSE,4.800000190734863,7,2,0,1,4,71,1.305700421333313,42,71,33
FALSE,4.800000190734863,7,1,0,1,1,72,1.4223006963729858,43,72,33
FALSE,2.5999999046325684,7,3,0.1040000021457672,0,9,73,1.0545003414154053,52,73,33
FALSE,4.800000190734863,7,2,0,1,4,74,1.1217005252838137,56,74,33
FALSE,4.800000190734863,7,2,0,1,4,75,0.95480001,60,75,33
FALSE,4.800000190734863,7,1,0,1,1,76,1.4218003749847412,61,76,33
FALSE,4.800000190734863,7,1,0,1,1,77,0.9884002804756165,62,77,33
FALSE,2.5999999046325684,7,3,0.1040000021457672,0,9,78,1.0048000812530518,71,78,33
FALSE,4.800000190734863,7,2,0,1,4,79,0.8542003035545349,75,79,33
FALSE,2.5999999046325684,7,2,0,0,4,8,4.183600425720215,22,8,33
FALSE,4.800000190734863,7,2,0,1,4,80,0.9383001327514648,79,80,33
FALSE,2.5999999046325684,7,3,0.1040000021457672,0,9,81,1.2551003694534302,88,81,33
FALSE,2.5999999046325684,7,2,0,0,4,82,1.4722009897232056,92,82,33
FALSE,4.800000190734863,7,2,0,1,4,83,1.5727006196975708,96,83,33
FALSE,4.800000190734863,7,2,0,1,4,84,1.6062010526657104,100,84,33
FALSE,2.5999999046325684,7,3,0.1040000021457672,0,9,85,1.0215003490447998,109,85,33
FALSE,4.800000190734863,7,1,0,1,1,86,1.806700587272644,110,86,33
FALSE,4.800000190734863,7,2,0,1,4,87,0.8544001579284668,114,87,33
FALSE,4.800000190734863,7,2,0,1,4,88,0.921300173,118,88,33
FALSE,4.800000190734863,7,2,0,1,4,89,1.1047000885009766,122,89,33
FALSE,4.800000190734863,7,1,0,1,1,9,1.756100893,23,9,33
FALSE,4.800000190734863,7,2,0,1,4,90,1.138000249862671,126,90,33
FALSE,2.5999999046325684,7,3,0.1040000021457672,0,9,91,1.3550004959106443,135,91,33
FALSE,2.5999999046325684,7,2,0,0,4,92,1.2383005619049072,139,92,33
FALSE,2.5999999046325684,7,2,0,0,4,93,0.8381001949310303,143,93,33
FALSE,2.5999999046325684,7,2,0,0,4,94,0.9718000888824464,147,94,33
FALSE,2.5999999046325684,7,2,0,0,4,95,0.8711999654769897,151,95,33
FALSE,4.800000190734863,7,2,0,1,4,96,0.9548001289367676,155,96,33
TRUE,2.5999999046325684,7,3,0.1040000021457672,0,-10,97,1.2053003311157229,145,97,33
FALSE,2.5999999046325684,7,3,0.1040000021457672,0,9,98,1.2050000429153442,154,98,33
FALSE,2.5999999046325684,7,2,0,0,4,99,0.9050002098083496,158,99,33
FALSE,4.800000190734863,7,3,0.1920000165700912,1,9,1,2.539900302886963,9,121,33
FALSE,2.5999999046325684,7,4,0.1624999940395355,0,16,10,2.490100622177124,94,130,33
FALSE,2.5999999046325684,7,3,0.1040000021457672,0,9,11,1.4888005256652832,103,131,33
FALSE,2.5999999046325684,7,3,0.1040000021457672,0,9,12,1.0048000812530518,112,132,33
FALSE,4.800000190734863,7,3,0.1920000165700912,1,9,13,6.062294483184815,121,133,33
FALSE,2.5999999046325684,7,6,0.3184999823570251,0,36,14,1.956101417541504,157,134,33
FALSE,2.5999999046325684,7,3,0.1040000021457672,0,9,15,1.3552006483078003,166,135,33
TRUE,2.5999999046325684,7,8,0.5264999270439148,0,-10,16,3.0743987560272217,156,136,33
FALSE,4.800000190734863,7,3,0.1920000165700912,1,9,17,1.1052004098892212,165,137,33
FALSE,2.5999999046325684,7,8,0.5264999270439148,0,64,18,2.173401117324829,229,138,33
FALSE,4.800000190734863,7,3,0.1920000165700912,1,9,19,1.9397008419036863,238,139,33
FALSE,2.5999999046325684,7,2,0,0,4,2,2.673999786376953,13,122,33
FALSE,2.5999999046325684,7,5,0.2339999973773956,0,25,20,1.8893015384674072,263,140,33
FALSE,2.5999999046325684,7,4,0.1624999940395355,0,16,21,2.657201051712036,279,141,33
FALSE,4.800000190734863,7,4,0.3000000119209289,1,16,22,1.8222006559371948,295,142,33
FALSE,4.800000190734863,7,3,0.1920000165700912,1,9,23,1.1878002882003784,304,143,33
FALSE,4.800000190734863,7,3,0.1920000165700912,1,9,24,1.3048003911972046,313,144,33
TRUE,4.800000190734863,7,4,0.3000000119209289,1,-10,25,1.3384004831314087,303,145,33
FALSE,4.800000190734863,7,3,0.1920000165700912,1,9,26,0.9211000800132751,312,146,33
FALSE,4.800000190734863,7,4,0.3000000119209289,1,16,27,1.505700707435608,328,147,33
FALSE,4.800000190734863,7,3,0.1920000165700912,1,9,28,1.2386003732681274,337,148,33
FALSE,2.5999999046325684,7,7,0.4160000085830688,0,49,29,2.056101560592652,386,149,33
FALSE,2.5999999046325684,7,2,0,0,4,3,1.3887003660202026,17,123,33
FALSE,2.5999999046325684,7,5,0.2339999973773956,0,25,30,3.4249987602233887,411,150,33
FALSE,4.800000190734863,7,3,0.1920000165700912,1,9,4,2.8407998085021973,26,124,33
FALSE,2.5999999046325684,7,3,0.1040000021457672,0,9,5,1.0880001783370972,35,125,33
FALSE,4.800000190734863,7,4,0.3000000119209289,1,16,6,1.923401117324829,51,126,33
FALSE,2.5999999046325684,7,3,0.1040000021457672,0,9,7,1.1042003631591797,60,127,33
FALSE,4.800000190734863,7,3,0.1920000165700912,1,9,8,2.1061010360717773,69,128,33
FALSE,4.800000190734863,7,3,0.1920000165700912,1,9,9,1.1721001863479614,78,129,33
FALSE,2.5999999046325684,7,5,0.2339999973773956,0,25,1,9.319890022277832,25,1,34
TRUE,2.5999999046325684,7,7,0.4160000085830688,0,-10,10,2.6864993572235107,213,10,34
FALSE,4.800000190734863,7,5,0.4320000410079956,1,25,100,1.0534000396728516,809,100,34
TRUE,4.800000190734863,7,5,0.4320000410079956,1,-10,101,1.1204999685287476,799,101,34
FALSE,2.5999999046325684,7,7,0.4160000085830688,0,49,102,1.452700138092041,848,102,34
TRUE,4.800000190734863,7,5,0.4320000410079956,1,-10,103,1.186300277709961,838,103,34
FALSE,4.800000190734863,7,5,0.4320000410079956,1,25,104,1.0029001235961914,863,104,34
TRUE,4.800000190734863,7,5,0.4320000410079956,1,-10,105,1.1373003721237185,853,105,34
FALSE,4.800000190734863,7,5,0.4320000410079956,1,25,106,1.1370002031326294,878,106,34
FALSE,4.800000190734863,7,5,0.4320000410079956,1,25,107,1.1201001405715942,903,107,34
FALSE,2.5999999046325684,7,7,0.4160000085830688,0,49,108,1.486300349235535,952,108,34
TRUE,2.5999999046325684,7,7,0.4160000085830688,0,-10,109,1.870000601,942,109,34
FALSE,2.5999999046325684,7,7,0.4160000085830688,0,49,11,2.0706005096435547,262,11,34
TRUE,2.5999999046325684,7,7,0.4160000085830688,0,-10,110,1.520300030708313,932,110,34
TRUE,2.5999999046325684,7,7,0.4160000085830688,0,-10,111,1.5531009435653689,922,111,34
FALSE,2.5999999046325684,7,7,0.4160000085830688,0,49,112,1.3696004152297974,971,112,34
TRUE,2.5999999046325684,7,7,0.4160000085830688,0,-10,113,1.637000322341919,961,113,34
TRUE,2.5999999046325684,7,7,0.4160000085830688,0,-10,114,1.819400429725647,951,114,34
FALSE,4.800000190734863,7,5,0.4320000410079956,1,25,115,1.0203001499176023,976,115,34
TRUE,2.5999999046325684,7,6,0.3184999823570251,0,-10,116,1.5032004117965698,966,116,34
TRUE,4.800000190734863,7,5,0.4320000410079956,1,-10,117,0.9705999493598938,956,117,34
TRUE,4.800000190734863,7,5,0.4320000410079956,1,-10,118,1.0700000524520874,946,118,34
FALSE,2.5999999046325684,7,6,0.3184999823570251,0,36,119,1.1869001388549805,982,119,34
TRUE,4.800000190734863,7,6,0.5879999995231628,1,-10,12,1.936900496482849,252,12,34
TRUE,4.800000190734863,7,5,0.4320000410079956,1,-10,120,1.102700114250183,972,120,34
FALSE,4.800000190734863,7,5,0.4320000410079956,1,25,13,1.9700007438659668,277,13,34
TRUE,4.800000190734863,7,5,0.4320000410079956,1,-10,14,1.6696001291275024,267,14,34
FALSE,2.5999999046325684,7,5,0.2339999973773956,0,25,15,2.4198005199432373,292,15,34
TRUE,2.5999999046325684,7,8,0.5264999270439148,0,-10,16,2.053600311279297,282,16,34
FALSE,2.5999999046325684,7,7,0.4160000085830688,0,49,17,1.9025003910064693,331,17,34
FALSE,2.5999999046325684,7,7,0.4160000085830688,0,49,18,2.3201005458831787,380,18,34
FALSE,4.800000190734863,7,5,0.4320000410079956,1,25,19,2.7028987407684326,405,19,34
TRUE,4.800000190734863,7,5,0.4320000410079956,1,-10,2,4.719594002,15,2,34
FALSE,2.5999999046325684,7,7,0.4160000085830688,0,49,20,1.970600724220276,454,20,34
TRUE,2.5999999046325684,7,7,0.4160000085830688,0,-10,21,1.8199000358581543,444,21,34
FALSE,2.5999999046325684,7,7,0.4160000085830688,0,49,22,2.0365002155303955,493,22,34
FALSE,4.800000190734863,7,6,0.5879999995231628,1,36,23,2.186800956726074,529,23,34
FALSE,4.800000190734863,7,6,0.5879999995231628,1,36,24,1.5036002397537231,565,24,34
TRUE,2.5999999046325684,7,7,0.4160000085830688,0,-10,25,2.020400285720825,555,25,34
FALSE,2.5999999046325684,7,7,0.4160000085830688,0,49,26,2.3869006633758545,604,26,34
TRUE,2.5999999046325684,7,7,0.4160000085830688,0,-10,27,1.736500621,594,27,34
TRUE,4.800000190734863,7,6,0.5879999995231628,1,-10,28,1.503400444984436,584,28,34
TRUE,4.800000190734863,7,6,0.5879999995231628,1,-10,29,1.4702003002166748,574,29,34
FALSE,4.800000190734863,7,5,0.4320000410079956,1,25,3,2.7193994522094727,40,3,34
TRUE,4.800000190734863,7,6,0.5879999995231628,1,-10,30,1.5359004735946655,564,30,34
FALSE,4.800000190734863,7,5,0.4320000410079956,1,25,31,1.8527005910873413,589,31,34
FALSE,4.800000190734863,7,5,0.4320000410079956,1,25,32,1.7869001626968384,614,32,34
FALSE,2.5999999046325684,7,7,0.4160000085830688,0,49,33,2.0198004245758057,663,33,34
FALSE,2.5999999046325684,7,7,0.4160000085830688,0,49,34,2.1362006664276123,712,34,34
FALSE,2.5999999046325684,7,7,0.4160000085830688,0,49,35,1.719800591468811,761,35,34
FALSE,4.800000190734863,7,5,0.4320000410079956,1,25,36,2.386500120162964,786,36,34
FALSE,2.5999999046325684,7,7,0.4160000085830688,0,49,37,1.8368008136749268,835,37,34
FALSE,4.800000190734863,7,5,0.4320000410079956,1,25,38,1.869900822639465,860,38,34
FALSE,4.800000190734863,7,5,0.4320000410079956,1,25,39,1.487200379371643,885,39,34
FALSE,2.5999999046325684,7,6,0.3184999823570251,0,36,4,5.770698070526123,76,4,34
FALSE,2.5999999046325684,7,7,0.4160000085830688,0,49,40,2.086400270462036,934,40,34
FALSE,4.800000190734863,7,5,0.4320000410079956,1,25,41,1.7528003454208374,959,41,34
TRUE,4.800000190734863,7,5,0.4320000410079956,1,-10,42,1.487000823020935,949,42,34
FALSE,4.800000190734863,7,5,0.4320000410079956,1,25,43,1.4697002172470093,974,43,34
FALSE,2.5999999046325684,7,7,0.4160000085830688,0,49,44,1.8533003330230715,1023,44,34
FALSE,4.800000190734863,7,5,0.4320000410079956,1,25,45,1.3866002559661863,1048,45,34
FALSE,2.5999999046325684,7,7,0.4160000085830688,0,49,46,1.8371002674102783,1097,46,34
FALSE,4.800000190734863,7,5,0.4320000410079956,1,25,47,1.402900218963623,1122,47,34
FALSE,2.5999999046325684,7,7,0.4160000085830688,0,49,48,2.069700002670288,1171,48,34
FALSE,2.5999999046325684,7,8,0.5264999270439148,0,64,49,2.203200578689575,1235,49,34
FALSE,2.5999999046325684,7,6,0.3184999823570251,0,36,5,3.669699668884277,112,5,34
TRUE,2.5999999046325684,7,8,0.5264999270439148,0,-10,50,2.4033002853393555,1225,50,34
TRUE,4.800000190734863,7,6,0.5879999995231628,1,-10,51,1.9200013875961304,1215,51,34
TRUE,4.800000190734863,7,6,0.5879999995231628,1,-10,52,1.569900631904602,1205,52,34
FALSE,2.5999999046325684,7,8,0.5264999270439148,0,64,53,2.086699962615967,1269,53,34
TRUE,4.800000190734863,7,6,0.5879999995231628,1,-10,54,1.7029004096984863,1259,54,34
FALSE,4.800000190734863,7,6,0.5879999995231628,1,36,55,1.6012001037597656,1295,55,34
TRUE,2.5999999046325684,7,8,0.5264999270439148,0,-10,56,2.1694998741149902,1285,56,34
FALSE,4.800000190734863,7,5,0.4320000410079956,1,25,57,1.6702003479003906,1310,57,34
FALSE,4.800000190734863,7,5,0.4320000410079956,1,25,58,1.353500247001648,1335,58,34
FALSE,2.5999999046325684,7,7,0.4160000085830688,0,49,59,2.036200761795044,1384,59,34
TRUE,4.800000190734863,7,6,0.5879999995231628,1,-10,6,3.4867987632751465,102,6,34
TRUE,2.5999999046325684,7,7,0.4160000085830688,0,-10,60,2.636500358581543,0,60,34
FALSE,4.800000190734863,7,5,0.4320000410079956,1,25,61,1.5701003074645996,25,61,34
FALSE,2.5999999046325684,7,7,0.4160000085830688,0,49,62,1.8366001844406128,74,62,34
FALSE,2.5999999046325684,7,7,0.4160000085830688,0,49,63,1.836600422859192,123,63,34
FALSE,2.5999999046325684,7,7,0.4160000085830688,0,49,64,1.9698997735977173,172,64,34
FALSE,4.800000190734863,7,5,0.4320000410079956,1,25,65,1.636199712753296,197,65,34
FALSE,2.5999999046325684,7,7,0.4160000085830688,0,49,66,1.9026000499725344,246,66,34
TRUE,2.5999999046325684,7,7,0.4160000085830688,0,-10,67,1.719499945640564,236,67,34
TRUE,2.5999999046325684,7,7,0.4160000085830688,0,-10,68,1.5869007110595703,226,68,34
FALSE,4.800000190734863,7,5,0.4320000410079956,1,25,69,1.2862002849578855,251,69,34
FALSE,4.800000190734863,7,6,0.5879999995231628,1,36,7,10.903992652893066,138,7,34
TRUE,2.5999999046325684,7,7,0.4160000085830688,0,-10,70,1.6533005237579346,241,70,34
TRUE,4.800000190734863,7,5,0.4320000410079956,1,-10,71,1.7702010869979858,231,71,34
FALSE,4.800000190734863,7,5,0.4320000410079956,1,25,72,1.3030002117156982,256,72,34
FALSE,2.5999999046325684,7,7,0.4160000085830688,0,49,73,1.7367005348205566,305,73,34
FALSE,4.800000190734863,7,5,0.4320000410079956,1,25,74,1.3866002559661863,330,74,34
FALSE,4.800000190734863,7,5,0.4320000410079956,1,25,75,1.1868999004364014,355,75,34
FALSE,4.800000190734863,7,5,0.4320000410079956,1,25,76,1.2192999124526978,380,76,34
FALSE,4.800000190734863,7,5,0.4320000410079956,1,25,77,1.1863000392913818,405,77,34
FALSE,2.5999999046325684,7,7,0.4160000085830688,0,49,78,1.7033005952835083,454,78,34
FALSE,4.800000190734863,7,5,0.4320000410079956,1,25,79,1.2369000911712646,479,79,34
FALSE,2.5999999046325684,7,7,0.4160000085830688,0,49,8,2.9198992252349854,187,8,34
TRUE,4.800000190734863,7,5,0.4320000410079956,1,-10,80,1.2202001810073853,469,80,34
FALSE,2.5999999046325684,7,7,0.4160000085830688,0,49,81,1.736600041389465,518,81,34
TRUE,2.5999999046325684,7,7,0.4160000085830688,0,-10,82,1.7368006706237793,508,82,34
FALSE,4.800000190734863,7,5,0.4320000410079956,1,25,83,1.4369004964828491,533,83,34
FALSE,4.800000190734863,7,5,0.4320000410079956,1,25,84,1.2364002466201782,558,84,34
FALSE,2.5999999046325684,7,7,0.4160000085830688,0,49,85,1.7532007694244385,607,85,34
TRUE,4.800000190734863,7,5,0.4320000410079956,1,-10,86,1.269800305366516,597,86,34
FALSE,4.800000190734863,7,5,0.4320000410079956,1,25,87,1.302799940109253,622,87,34
FALSE,4.800000190734863,7,5,0.4320000410079956,1,25,88,1.2527003288269043,647,88,34
TRUE,4.800000190734863,7,5,0.4320000410079956,1,-10,89,1.2867000102996826,637,89,34
FALSE,4.800000190734863,7,6,0.5879999995231628,1,36,9,2.569799900054932,223,9,34
FALSE,4.800000190734863,7,5,0.4320000410079956,1,25,90,1.1197000741958618,662,90,34
TRUE,2.5999999046325684,7,7,0.4160000085830688,0,-10,91,1.8530001640319824,652,91,34
FALSE,2.5999999046325684,7,7,0.4160000085830688,0,49,92,1.6872005462646484,701,92,34
TRUE,2.5999999046325684,7,7,0.4160000085830688,0,-10,93,1.7032006978988647,691,93,34
TRUE,2.5999999046325684,7,7,0.4160000085830688,0,-10,94,1.6203004121780396,681,94,34
FALSE,2.5999999046325684,7,7,0.4160000085830688,0,49,95,1.820000410079956,730,95,34
FALSE,4.800000190734863,7,5,0.4320000410079956,1,25,96,1.287400484085083,755,96,34
FALSE,2.5999999046325684,7,7,0.4160000085830688,0,49,97,2.153701066970825,804,97,34
TRUE,2.5999999046325684,7,7,0.4160000085830688,0,-10,98,1.503300428390503,794,98,34
TRUE,2.5999999046325684,7,7,0.4160000085830688,0,-10,99,1.5868003368377686,784,99,34
FALSE,4.800000190734863,7,5,0.4320000410079956,1,25,1,1.920000910758972,25,121,34
FALSE,2.5999999046325684,7,7,0.4160000085830688,0,49,10,1.5203006267547607,276,130,34
FALSE,2.5999999046325684,7,7,0.4160000085830688,0,49,11,1.5701006650924685,325,131,34
TRUE,2.5999999046325684,7,7,0.4160000085830688,0,-10,12,1.6533008813858032,315,132,34
FALSE,4.800000190734863,7,5,0.4320000410079956,1,25,13,1.2365000247955322,340,133,34
FALSE,2.5999999046325684,7,7,0.4160000085830688,0,49,14,1.5030003786087036,389,134,34
TRUE,2.5999999046325684,7,7,0.4160000085830688,0,-10,15,1.5698003768920898,379,135,34
TRUE,2.5999999046325684,7,7,0.4160000085830688,0,-10,16,1.5199003219604492,369,136,34
FALSE,4.800000190734863,7,5,0.4320000410079956,1,25,17,1.2033003568649292,394,137,34
FALSE,2.5999999046325684,7,7,0.4160000085830688,0,49,18,1.6196006536483765,443,138,34
FALSE,4.800000190734863,7,5,0.4320000410079956,1,25,19,1.252900242805481,468,139,34
TRUE,2.5999999046325684,7,7,0.4160000085830688,0,-10,2,2.519700288772583,15,122,34
FALSE,2.5999999046325684,7,7,0.4160000085830688,0,49,20,1.2868003845214844,517,140,34
TRUE,2.5999999046325684,7,7,0.4160000085830688,0,-10,21,1.470000386238098,507,141,34
FALSE,4.800000190734863,7,5,0.4320000410079956,1,25,22,1.0860002040863037,532,142,34
TRUE,4.800000190734863,7,6,0.5879999995231628,1,-10,23,1.3037008047103882,522,143,34
TRUE,4.800000190734863,7,6,0.5879999995231628,1,-10,24,1.220300555229187,512,144,34
TRUE,4.800000190734863,7,6,0.5879999995231628,1,-10,25,1.0864003896713257,502,145,34
FALSE,4.800000190734863,7,5,0.4320000410079956,1,25,26,1.086899995803833,527,146,34
FALSE,4.800000190734863,7,5,0.4320000410079956,1,25,27,0.9536998867988586,552,147,34
FALSE,4.800000190734863,7,5,0.4320000410079956,1,25,28,1.6034008264541626,577,148,34
FALSE,2.5999999046325684,7,7,0.4160000085830688,0,49,29,1.3701003789901731,626,149,34
FALSE,2.5999999046325684,7,7,0.4160000085830688,0,49,3,1.5033003091812134,64,123,34
FALSE,2.5999999046325684,7,7,0.4160000085830688,0,49,30,1.7036006450653076,675,150,34
FALSE,4.800000190734863,7,5,0.4320000410079956,1,25,4,1.3696004152297974,89,124,34
FALSE,2.5999999046325684,7,7,0.4160000085830688,0,49,5,1.503800630569458,138,125,34
TRUE,4.800000190734863,7,5,0.4320000410079956,1,-10,6,1.352400302886963,128,126,34
FALSE,2.5999999046325684,7,7,0.4160000085830688,0,49,7,1.587000846862793,177,127,34
FALSE,4.800000190734863,7,5,0.4320000410079956,1,25,8,1.201700210571289,202,128,34
FALSE,4.800000190734863,7,5,0.4320000410079956,1,25,9,1.1531000137329102,227,129,34
FALSE,2.5999999046325684,7,4,0.1624999940395355,0,16,1,7.586998462677002,16,1,35
FALSE,2.5999999046325684,7,4,0.1624999940395355,0,16,10,2.9026992321014404,52,10,35
FALSE,4.800000190734863,7,2,0,1,4,100,1.2202000617980957,239,100,35
FALSE,4.800000190734863,7,2,0,1,4,101,0.990300179,243,101,35
FALSE,2.5999999046325684,7,4,0.1624999940395355,0,16,102,1.752099871635437,259,102,35
FALSE,4.800000190734863,7,2,0,1,4,103,1.1043001413345337,263,103,35
FALSE,4.800000190734863,7,2,0,1,4,104,1.019299864768982,267,104,35
FALSE,4.800000190734863,7,2,0,1,4,105,1.035099983215332,271,105,35
FALSE,4.800000190734863,7,2,0,1,4,106,0.9356001615524292,275,106,35
FALSE,4.800000190734863,7,2,0,1,4,107,1.0025001764297483,279,107,35
FALSE,2.5999999046325684,7,4,0.1624999940395355,0,16,108,1.719699501991272,295,108,35
FALSE,2.5999999046325684,7,4,0.1624999940395355,0,16,109,1.4861998558044434,311,109,35
FALSE,2.5999999046325684,7,4,0.1624999940395355,0,16,11,1.851799845695496,68,11,35
FALSE,2.5999999046325684,7,5,0.2339999973773956,0,25,110,1.7715997695922852,336,110,35
TRUE,2.5999999046325684,7,5,0.2339999973773956,0,-10,111,2.8212993144989014,326,111,35
TRUE,2.5999999046325684,7,5,0.2339999973773956,0,-10,112,1.735200286,316,112,35
FALSE,2.5999999046325684,7,5,0.2339999973773956,0,25,113,1.969699740409851,341,113,35
FALSE,2.5999999046325684,7,5,0.2339999973773956,0,25,114,2.1851999759674072,366,114,35
FALSE,4.800000190734863,7,2,0,1,4,115,1.119300127029419,370,115,35
FALSE,2.5999999046325684,7,4,0.1624999940395355,0,16,116,1.8026007413864136,386,116,35
FALSE,4.800000190734863,7,2,0,1,4,117,1.018799901008606,390,117,35
FALSE,4.800000190734863,7,2,0,1,4,118,1.0708000659942627,394,118,35
FALSE,2.5999999046325684,7,4,0.1624999940395355,0,16,119,1.902400255203247,410,119,35
FALSE,4.800000190734863,7,2,0,1,4,12,1.5865999460220337,72,12,35
FALSE,4.800000190734863,7,2,0,1,4,120,1.052899718284607,414,120,35
FALSE,4.800000190734863,7,2,0,1,4,13,1.3530998229980469,76,13,35
FALSE,4.800000190734863,7,2,0,1,4,14,1.3869998455047607,80,14,35
FALSE,2.5999999046325684,7,4,0.1624999940395355,0,16,15,1.935999751091004,96,15,35
FALSE,2.5999999046325684,7,4,0.1624999940395355,0,16,16,2.004000186920166,112,16,35
TRUE,2.5999999046325684,7,4,0.1624999940395355,0,-10,17,2.053099632263184,102,17,35
FALSE,2.5999999046325684,7,4,0.1624999940395355,0,16,18,2.669800281524658,118,18,35
FALSE,4.800000190734863,7,2,0,1,4,19,1.2710998058319092,122,19,35
TRUE,4.800000190734863,7,4,0.3000000119209289,1,-10,2,4.234699249267578,6,2,35
TRUE,2.5999999046325684,7,4,0.1624999940395355,0,-10,20,2.098799944,112,20,35
FALSE,2.5999999046325684,7,4,0.1624999940395355,0,16,21,1.9882997274398804,128,21,35
FALSE,2.5999999046325684,7,4,0.1624999940395355,0,16,22,2.886899948120117,144,22,35
FALSE,4.800000190734863,7,2,0,1,4,23,1.2365000247955322,148,23,35
FALSE,4.800000190734863,7,2,0,1,4,24,1.1038001775741575,152,24,35
TRUE,2.5999999046325684,7,4,0.1624999940395355,0,-10,25,1.987300395965576,142,25,35
FALSE,2.5999999046325684,7,4,0.1624999940395355,0,16,26,1.937599897384644,158,26,35
FALSE,2.5999999046325684,7,4,0.1624999940395355,0,16,27,1.7383995056152344,174,27,35
FALSE,4.800000190734863,7,2,0,1,4,28,1.3358001708984375,178,28,35
FALSE,4.800000190734863,7,2,0,1,4,29,1.0702002048492432,182,29,35
TRUE,4.800000190734863,7,3,0.1920000165700912,1,-10,3,2.853100061416626,-4,3,35
FALSE,4.800000190734863,7,2,0,1,4,30,1.0530000925064087,186,30,35
FALSE,4.800000190734863,7,2,0,1,4,31,1.0876002311706543,190,31,35
FALSE,4.800000190734863,7,2,0,1,4,32,1.1204001903533936,194,32,35
FALSE,2.5999999046325684,7,4,0.1624999940395355,0,16,33,1.986000299453736,210,33,35
FALSE,2.5999999046325684,7,4,0.1624999940395355,0,16,34,1.8188011646270752,226,34,35
FALSE,2.5999999046325684,7,4,0.1624999940395355,0,16,35,1.6224002838134766,242,35,35
FALSE,4.800000190734863,7,2,0,1,4,36,1.1847000122070312,246,36,35
TRUE,2.5999999046325684,7,4,0.1624999940395355,0,-10,37,2.0191004276275635,236,37,35
FALSE,4.800000190734863,7,2,0,1,4,38,1.2518999576568604,240,38,35
FALSE,4.800000190734863,7,2,0,1,4,39,1.2379999160766602,244,39,35
FALSE,2.5999999046325684,7,4,0.1624999940395355,0,16,4,3.753298521,12,4,35
FALSE,2.5999999046325684,7,4,0.1624999940395355,0,16,40,1.8877997398376465,260,40,35
FALSE,4.800000190734863,7,2,0,1,4,41,1.2195000648498535,264,41,35
FALSE,4.800000190734863,7,2,0,1,4,42,1.3850001096725464,268,42,35
FALSE,4.800000190734863,7,2,0,1,4,43,1.137200117111206,272,43,35
FALSE,2.5999999046325684,7,4,0.1624999940395355,0,16,44,1.8374998569488523,288,44,35
FALSE,4.800000190734863,7,2,0,1,4,45,1.2197003364562988,292,45,35
FALSE,2.5999999046325684,7,4,0.1624999940395355,0,16,46,1.671700358390808,308,46,35
FALSE,4.800000190734863,7,2,0,1,4,47,1.1030000448226929,312,47,35
TRUE,2.5999999046325684,7,4,0.1624999940395355,0,-10,48,1.7863000631332395,302,48,35
FALSE,2.5999999046325684,7,4,0.1624999940395355,0,16,49,1.839599609,318,49,35
FALSE,2.5999999046325684,7,5,0.2339999973773956,0,25,5,2.903299093,37,5,35
FALSE,2.5999999046325684,7,4,0.1624999940395355,0,16,50,1.934300184249878,334,50,35
FALSE,4.800000190734863,7,2,0,1,4,51,1.2481002807617188,338,51,35
FALSE,4.800000190734863,7,2,0,1,4,52,1.2695999145507812,342,52,35
FALSE,2.5999999046325684,7,3,0.1040000021457672,0,9,53,2.3376994132995605,351,53,35
FALSE,4.800000190734863,7,2,0,1,4,54,1.1033000946044922,355,54,35
FALSE,4.800000190734863,7,2,0,1,4,55,1.0871000289916992,359,55,35
FALSE,2.5999999046325684,7,3,0.1040000021457672,0,9,56,2.7685999870300293,368,56,35
FALSE,4.800000190734863,7,2,0,1,4,57,1.2051000595092771,372,57,35
FALSE,4.800000190734863,7,2,0,1,4,58,1.1219000816345217,376,58,35
FALSE,2.5999999046325684,7,4,0.1624999940395355,0,16,59,2.4060003757476807,392,59,35
FALSE,4.800000190734863,7,1,0,1,1,6,2.0364997386932373,38,6,35
FALSE,2.5999999046325684,7,4,0.1624999940395355,0,16,60,1.6213996410369873,0,60,35
FALSE,4.800000190734863,7,2,0,1,4,61,1.4204001426696775,4,61,35
TRUE,2.5999999046325684,7,4,0.1624999940395355,0,-10,62,1.8198002576828003,-6,62,35
FALSE,2.5999999046325684,7,5,0.2339999973773956,0,25,63,1.9060003757476809,19,63,35
TRUE,2.5999999046325684,7,4,0.1624999940395355,0,-10,64,1.803800106048584,9,64,35
FALSE,4.800000190734863,7,2,0,1,4,65,1.1690000295639038,13,65,35
FALSE,2.5999999046325684,7,4,0.1624999940395355,0,16,66,2.721699953079224,29,66,35
FALSE,2.5999999046325684,7,4,0.1624999940395355,0,16,67,1.4208999872207642,45,67,35
FALSE,2.5999999046325684,7,4,0.1624999940395355,0,16,68,1.5880999565124512,61,68,35
FALSE,4.800000190734863,7,2,0,1,4,69,1.1518000364303589,65,69,35
FALSE,4.800000190734863,7,2,0,1,4,7,4.300598145,42,7,35
FALSE,2.5999999046325684,7,4,0.1624999940395355,0,16,70,1.7843995094299316,81,70,35
FALSE,4.800000190734863,7,2,0,1,4,71,1.820000171661377,85,71,35
FALSE,4.800000190734863,7,2,0,1,4,72,1.0706000328063965,89,72,35
FALSE,2.5999999046325684,7,4,0.1624999940395355,0,16,73,1.5190999507904053,105,73,35
FALSE,4.800000190734863,7,2,0,1,4,74,1.0686999559402466,109,74,35
FALSE,4.800000190734863,7,2,0,1,4,75,1.6857998371124268,113,75,35
FALSE,4.800000190734863,7,2,0,1,4,76,1.0188000202178955,117,76,35
FALSE,4.800000190734863,7,2,0,1,4,77,0.9362999796867372,121,77,35
FALSE,2.5999999046325684,7,4,0.1624999940395355,0,16,78,1.7353997230529783,137,78,35
FALSE,4.800000190734863,7,2,0,1,4,79,1.0839000940322876,141,79,35
TRUE,2.5999999046325684,7,5,0.2339999973773956,0,-10,8,3.368499994277954,32,8,35
TRUE,4.800000190734863,7,3,0.1920000165700912,1,-10,80,1.717400074005127,131,80,35
FALSE,2.5999999046325684,7,4,0.1624999940395355,0,16,81,1.7191001176834106,147,81,35
TRUE,2.5999999046325684,7,5,0.2339999973773956,0,-10,82,2.301498889923096,137,82,35
FALSE,4.800000190734863,7,2,0,1,4,83,1.053699970245361,141,83,35
FALSE,4.800000190734863,7,2,0,1,4,84,1.0536000728607178,145,84,35
FALSE,2.5999999046325684,7,4,0.1624999940395355,0,16,85,1.7192997932434082,161,85,35
FALSE,4.800000190734863,7,2,0,1,4,86,1.0347000360488892,165,86,35
FALSE,4.800000190734863,7,2,0,1,4,87,1.101599931716919,169,87,35
FALSE,4.800000190734863,7,2,0,1,4,88,1.0024999380111694,173,88,35
FALSE,4.800000190734863,7,2,0,1,4,89,1.068700075149536,177,89,35
FALSE,4.800000190734863,7,2,0,1,4,9,1.834999918937683,36,9,35
FALSE,4.800000190734863,7,2,0,1,4,90,1.0856000185012815,181,90,35
FALSE,2.5999999046325684,7,4,0.1624999940395355,0,16,91,1.7015995979309082,197,91,35
FALSE,2.5999999046325684,7,4,0.1624999940395355,0,16,92,1.518899917602539,213,92,35
FALSE,2.5999999046325684,7,4,0.1624999940395355,0,16,93,1.753299355506897,229,93,35
TRUE,2.5999999046325684,7,4,0.1624999940395355,0,-10,94,1.7187001705169678,219,94,35
FALSE,2.5999999046325684,7,4,0.1624999940395355,0,16,95,2.104000329971313,235,95,35
FALSE,4.800000190734863,7,2,0,1,4,96,1.099700093269348,239,96,35
TRUE,2.5999999046325684,7,4,0.1624999940395355,0,-10,97,1.6359001398086548,229,97,35
FALSE,2.5999999046325684,7,4,0.1624999940395355,0,16,98,1.7202999591827393,245,98,35
TRUE,2.5999999046325684,7,5,0.2339999973773956,0,-10,99,2.0373995304107666,235,99,35
FALSE,4.800000190734863,7,2,0,1,4,1,2.2369000911712646,4,121,35
FALSE,2.5999999046325684,7,4,0.1624999940395355,0,16,10,1.403900146484375,100,130,35
FALSE,2.5999999046325684,7,4,0.1624999940395355,0,16,11,1.5538002252578735,116,131,35
TRUE,2.5999999046325684,7,4,0.1624999940395355,0,-10,12,1.4360002279281616,106,132,35
FALSE,4.800000190734863,7,2,0,1,4,13,1.053800106048584,110,133,35
FALSE,2.5999999046325684,7,4,0.1624999940395355,0,16,14,1.6026992797851562,126,134,35
FALSE,2.5999999046325684,7,4,0.1624999940395355,0,16,15,1.5861003398895264,142,135,35
FALSE,2.5999999046325684,7,3,0.1040000021457672,0,9,16,1.503499984741211,151,136,35
FALSE,4.800000190734863,7,2,0,1,4,17,0.9871000051498412,155,137,35
FALSE,2.5999999046325684,7,4,0.1624999940395355,0,16,18,1.5361003875732422,171,138,35
FALSE,4.800000190734863,7,2,0,1,4,19,0.8517000675201416,175,139,35
FALSE,2.5999999046325684,7,4,0.1624999940395355,0,16,2,1.5511997938156128,20,122,35
FALSE,2.5999999046325684,7,4,0.1624999940395355,0,16,20,1.4375998973846436,191,140,35
FALSE,2.5999999046325684,7,4,0.1624999940395355,0,16,21,1.4368999004364014,207,141,35
FALSE,4.800000190734863,7,2,0,1,4,22,1.0362000465393066,211,142,35
FALSE,4.800000190734863,7,2,0,1,4,23,0.9527998566627502,215,143,35
FALSE,4.800000190734863,7,2,0,1,4,24,1.020699977874756,219,144,35
FALSE,4.800000190734863,7,2,0,1,4,25,1.1192001104354858,223,145,35
FALSE,4.800000190734863,7,2,0,1,4,26,1.0214000940322876,227,146,35
FALSE,4.800000190734863,7,2,0,1,4,27,1.0205000638961792,231,147,35
FALSE,4.800000190734863,7,2,0,1,4,28,0.982900083,235,148,35
FALSE,2.5999999046325684,7,4,0.1624999940395355,0,16,29,1.571500301361084,251,149,35
FALSE,2.5999999046325684,7,4,0.1624999940395355,0,16,3,1.4509999752044678,36,123,35
FALSE,2.5999999046325684,7,5,0.2339999973773956,0,25,30,1.753900170326233,276,150,35
FALSE,4.800000190734863,7,2,0,1,4,4,1.0016002655029297,40,124,35
FALSE,2.5999999046325684,7,4,0.1624999940395355,0,16,5,1.4205001592636108,56,125,35
FALSE,4.800000190734863,7,2,0,1,4,6,0.8867999315261841,60,126,35
FALSE,2.5999999046325684,7,4,0.1624999940395355,0,16,7,1.3362996578216553,76,127,35
FALSE,4.800000190734863,7,2,0,1,4,8,0.8534001111984253,80,128,35
FALSE,4.800000190734863,7,2,0,1,4,9,0.969100058,84,129,35
FALSE,2.5999999046325684,7,8,0.5264999270439148,0,64,1,13.340660095214844,64,1,36
FALSE,2.5999999046325684,7,8,0.5264999270439148,0,64,10,7.067996501922607,139,10,36
FALSE,4.800000190734863,7,4,0.3000000119209289,1,16,100,4.799097537994385,731,100,36
TRUE,4.800000190734863,7,4,0.3000000119209289,1,-10,101,2.4173004627227783,721,101,36
FALSE,2.5999999046325684,7,9,0.6499999761581421,0,81,102,3.533399582,802,102,36
FALSE,4.800000190734863,7,4,0.3000000119209289,1,16,103,2.584500789642334,818,103,36
FALSE,4.800000190734863,7,4,0.3000000119209289,1,16,104,1.901200532913208,834,104,36
FALSE,4.800000190734863,7,5,0.4320000410079956,1,25,105,1.767000675201416,859,105,36
FALSE,4.800000190734863,7,4,0.3000000119209289,1,16,106,1.8343003988265991,875,106,36
FALSE,4.800000190734863,7,4,0.3000000119209289,1,16,107,1.667900800704956,891,107,36
FALSE,2.5999999046325684,7,9,0.6499999761581421,0,81,108,3.482498407363892,972,108,36
FALSE,2.5999999046325684,7,4,0.1624999940395355,0,16,109,2.204800844192505,988,109,36
TRUE,2.5999999046325684,7,8,0.5264999270439148,0,-10,11,6.996093273162842,129,11,36
TRUE,2.5999999046325684,7,5,0.2339999973773956,0,-10,110,2.4845006465911865,978,110,36
FALSE,2.5999999046325684,7,9,0.6499999761581421,0,81,111,3.4167988300323486,1059,111,36
FALSE,2.5999999046325684,7,5,0.2339999973773956,0,25,112,3.967198610305786,1084,112,36
FALSE,2.5999999046325684,7,5,0.2339999973773956,0,25,113,2.285301446914673,1109,113,36
FALSE,2.5999999046325684,7,8,0.5264999270439148,0,64,114,3.999199390411377,1173,114,36
FALSE,4.800000190734863,7,4,0.3000000119209289,1,16,115,2.1675004959106445,1189,115,36
TRUE,2.5999999046325684,7,9,0.6499999761581421,0,-10,116,3.049999952316284,1179,116,36
FALSE,4.800000190734863,7,3,0.1920000165700912,1,9,117,2.117600440979004,1188,117,36
FALSE,4.800000190734863,7,5,0.4320000410079956,1,25,118,2.9163997173309326,1213,118,36
FALSE,2.5999999046325684,7,5,0.2339999973773956,0,25,119,4.382098675,1238,119,36
TRUE,4.800000190734863,7,8,0.9719999432563782,1,-10,12,10.55979061126709,119,12,36
FALSE,4.800000190734863,7,4,0.3000000119209289,1,16,120,2.155400514602661,1254,120,36
TRUE,4.800000190734863,7,9,1.2000000476837158,1,-10,13,5.513998985290527,109,13,36
FALSE,4.800000190734863,7,7,0.768000066,1,49,14,4.099998950958252,158,14,36
TRUE,2.5999999046325684,7,7,0.4160000085830688,0,-10,15,8.178285598754883,148,15,36
FALSE,2.5999999046325684,7,5,0.2339999973773956,0,25,16,12.007372856140137,173,16,36
FALSE,2.5999999046325684,7,4,0.1624999940395355,0,16,17,9.360978127,189,17,36
TRUE,2.5999999046325684,7,6,0.3184999823570251,0,-10,18,5.745694160461426,179,18,36
FALSE,4.800000190734863,7,4,0.3000000119209289,1,16,19,6.380495071411133,195,19,36
TRUE,4.800000190734863,7,9,1.2000000476837158,1,-10,2,13.47746753692627,54,2,36
FALSE,2.5999999046325684,7,4,0.1624999940395355,0,16,20,8.411488533,211,20,36
FALSE,2.5999999046325684,7,5,0.2339999973773956,0,25,21,8.611993789672852,236,21,36
FALSE,2.5999999046325684,7,5,0.2339999973773956,0,25,22,10.376178741455078,261,22,36
FALSE,4.800000190734863,7,5,0.4320000410079956,1,25,23,7.012392520904541,286,23,36
TRUE,4.800000190734863,7,5,0.4320000410079956,1,-10,24,3.851698398590088,276,24,36
FALSE,2.5999999046325684,7,8,0.5264999270439148,0,64,25,12.524266242980955,340,25,36
FALSE,2.5999999046325684,7,6,0.3184999823570251,0,36,26,7.062094211578369,376,26,36
FALSE,2.5999999046325684,7,5,0.2339999973773956,0,25,27,6.464395523071289,401,27,36
TRUE,4.800000190734863,7,5,0.4320000410079956,1,-10,28,6.531394004821777,391,28,36
TRUE,4.800000190734863,7,4,0.3000000119209289,1,-10,29,4.2826972007751465,381,29,36
TRUE,4.800000190734863,7,9,1.2000000476837158,1,-10,3,12.974165916442873,44,3,36
FALSE,4.800000190734863,7,1,0,1,1,30,6.612493991851807,382,30,36
FALSE,4.800000190734863,7,5,0.4320000410079956,1,25,31,8.861487389,407,31,36
FALSE,4.800000190734863,7,5,0.4320000410079956,1,25,32,6.484493255615234,432,32,36
TRUE,2.5999999046325684,7,8,0.5264999270439148,0,-10,33,6.132193088531494,422,33,36
FALSE,2.5999999046325684,7,7,0.4160000085830688,0,49,34,4.616897106170654,471,34,36
FALSE,2.5999999046325684,7,8,0.5264999270439148,0,64,35,4.9976959228515625,535,35,36
FALSE,4.800000190734863,7,5,0.4320000410079956,1,25,36,4.981297016143799,560,36,36
FALSE,2.5999999046325684,7,8,0.5264999270439148,0,64,37,6.030796051025391,624,37,36
FALSE,4.800000190734863,7,5,0.4320000410079956,1,25,38,5.597295761108398,649,38,36
FALSE,4.800000190734863,7,5,0.4320000410079956,1,25,39,4.598296642303467,674,39,36
TRUE,2.5999999046325684,7,9,0.6499999761581421,0,-10,4,8.358287811279297,34,4,36
FALSE,2.5999999046325684,7,9,0.6499999761581421,0,81,40,6.329792499542236,755,40,36
TRUE,4.800000190734863,7,6,0.5879999995231628,1,-10,41,6.513095378875732,745,41,36
FALSE,4.800000190734863,7,6,0.5879999995231628,1,36,42,4.315898895263672,781,42,36
TRUE,4.800000190734863,7,5,0.4320000410079956,1,-10,43,5.180796146392822,771,43,36
FALSE,2.5999999046325684,7,7,0.4160000085830688,0,49,44,6.210692405700684,820,44,36
TRUE,4.800000190734863,7,7,0.768000066,1,-10,45,10.692986488342283,810,45,36
TRUE,2.5999999046325684,7,9,0.6499999761581421,0,-10,46,4.416396617889404,800,46,36
FALSE,4.800000190734863,7,5,0.4320000410079956,1,25,47,2.0351004600524902,825,47,36
TRUE,2.5999999046325684,7,9,0.6499999761581421,0,-10,48,3.250699520111084,815,48,36
FALSE,2.5999999046325684,7,6,0.3184999823570251,0,36,49,2.3343005180358887,851,49,36
FALSE,2.5999999046325684,7,9,0.6499999761581421,0,81,5,11.040267944335938,115,5,36
TRUE,2.5999999046325684,7,6,0.3184999823570251,0,-10,50,3.166899442672729,841,50,36
FALSE,4.800000190734863,7,4,0.3000000119209289,1,16,51,3.083998680114746,857,51,36
TRUE,4.800000190734863,7,6,0.5879999995231628,1,-10,52,3.25,847,52,36
FALSE,2.5999999046325684,7,9,0.6499999761581421,0,81,53,3.0658984184265137,928,53,36
FALSE,4.800000190734863,7,5,0.4320000410079956,1,25,54,2.9671993255615234,953,54,36
FALSE,4.800000190734863,7,4,0.3000000119209289,1,16,55,2.866999387741089,969,55,36
FALSE,2.5999999046325684,7,9,0.6499999761581421,0,81,56,4.982395172119141,1050,56,36
FALSE,4.800000190734863,7,4,0.3000000119209289,1,16,57,2.450900316238404,1066,57,36
FALSE,4.800000190734863,7,4,0.3000000119209289,1,16,58,3.3663980960845947,1082,58,36
FALSE,2.5999999046325684,7,9,0.6499999761581421,0,81,59,4.332597732543945,1163,59,36
TRUE,4.800000190734863,7,8,0.9719999432563782,1,-10,6,5.847894668579102,105,6,36
FALSE,2.5999999046325684,7,5,0.2339999973773956,0,25,60,2.583500623703003,0,60,36
TRUE,4.800000190734863,7,5,0.4320000410079956,1,-10,61,4.233098507,-10,61,36
TRUE,2.5999999046325684,7,9,0.6499999761581421,0,-10,62,4.382997035980225,-20,62,36
TRUE,2.5999999046325684,7,9,0.6499999761581421,0,-10,63,4.729698657989502,-30,63,36
FALSE,2.5999999046325684,7,4,0.1624999940395355,0,16,64,2.051300287246704,-14,64,36
TRUE,4.800000190734863,7,5,0.4320000410079956,1,-10,65,2.3679001331329346,-24,65,36
FALSE,2.5999999046325684,7,9,0.6499999761581421,0,81,66,3.433898687362671,57,66,36
TRUE,2.5999999046325684,7,7,0.4160000085830688,0,-10,67,3.383199453353882,47,67,36
FALSE,2.5999999046325684,7,9,0.6499999761581421,0,81,68,3.8535985946655273,128,68,36
FALSE,4.800000190734863,7,4,0.3000000119209289,1,16,69,2.483799457550049,144,69,36
TRUE,4.800000190734863,7,7,0.768000066,1,-10,7,9.377983093,95,7,36
TRUE,2.5999999046325684,7,7,0.4160000085830688,0,-10,70,2.4517996311187744,134,70,36
TRUE,4.800000190734863,7,4,0.3000000119209289,1,-10,71,2.218400955200196,124,71,36
FALSE,4.800000190734863,7,5,0.4320000410079956,1,25,72,2.848100185394287,149,72,36
TRUE,2.5999999046325684,7,9,0.6499999761581421,0,-10,73,3.682999372,139,73,36
FALSE,4.800000190734863,7,5,0.4320000410079956,1,25,74,1.9353008270263672,164,74,36
FALSE,4.800000190734863,7,5,0.4320000410079956,1,25,75,1.950900912284851,189,75,36
FALSE,4.800000190734863,7,3,0.1920000165700912,1,9,76,2.0680010318756104,198,76,36
FALSE,4.800000190734863,7,4,0.3000000119209289,1,16,77,2.583900451660156,214,77,36
FALSE,2.5999999046325684,7,9,0.6499999761581421,0,81,78,2.633499861,295,78,36
FALSE,4.800000190734863,7,4,0.3000000119209289,1,16,79,1.8650007247924805,311,79,36
TRUE,2.5999999046325684,7,9,0.6499999761581421,0,-10,8,5.5651936531066895,85,8,36
FALSE,4.800000190734863,7,4,0.3000000119209289,1,16,80,2.6501998901367188,327,80,36
FALSE,2.5999999046325684,7,3,0.1040000021457672,0,9,81,1.5687001943588257,336,81,36
TRUE,2.5999999046325684,7,7,0.4160000085830688,0,-10,82,2.433800458908081,326,82,36
FALSE,4.800000190734863,7,3,0.1920000165700912,1,9,83,2.0513010025024414,335,83,36
FALSE,4.800000190734863,7,4,0.3000000119209289,1,16,84,2.518301248550415,351,84,36
FALSE,2.5999999046325684,7,9,0.6499999761581421,0,81,85,3.649599552154541,432,85,36
FALSE,4.800000190734863,7,4,0.3000000119209289,1,16,86,3.1169002056121826,448,86,36
FALSE,4.800000190734863,7,4,0.3000000119209289,1,16,87,2.550700187683105,464,87,36
TRUE,4.800000190734863,7,5,0.4320000410079956,1,-10,88,3.0837974548339844,454,88,36
FALSE,4.800000190734863,7,4,0.3000000119209289,1,16,89,2.202000379562378,470,89,36
TRUE,4.800000190734863,7,7,0.768000066,1,-10,9,14.716849327087402,75,9,36
FALSE,4.800000190734863,7,5,0.4320000410079956,1,25,90,3.73369813,495,90,36
FALSE,2.5999999046325684,7,9,0.6499999761581421,0,81,91,5.298197746276856,576,91,36
TRUE,2.5999999046325684,7,6,0.3184999823570251,0,-10,92,3.3675990104675293,566,92,36
TRUE,2.5999999046325684,7,9,0.6499999761581421,0,-10,93,3.628498792648315,556,93,36
FALSE,2.5999999046325684,7,8,0.5264999270439148,0,64,94,3.250598907470703,620,94,36
TRUE,2.5999999046325684,7,6,0.3184999823570251,0,-10,95,4.214898586273193,610,95,36
FALSE,4.800000190734863,7,3,0.1920000165700912,1,9,96,3.349998712539673,619,96,36
TRUE,2.5999999046325684,7,3,0.1040000021457672,0,-10,97,7.1291937828063965,609,97,36
FALSE,2.5999999046325684,7,9,0.6499999761581421,0,81,98,5.797894477844238,690,98,36
FALSE,2.5999999046325684,7,5,0.2339999973773956,0,25,99,3.1014997959136963,715,99,36
TRUE,4.800000190734863,7,9,1.2000000476837158,1,-10,1,4.146598815917969,-10,121,36
FALSE,2.5999999046325684,7,9,0.6499999761581421,0,81,10,3.097998619,274,130,36
FALSE,2.5999999046325684,7,6,0.3184999823570251,0,36,11,2.882899284362793,310,131,36
TRUE,2.5999999046325684,7,9,0.6499999761581421,0,-10,12,5.496696472167969,300,132,36
FALSE,4.800000190734863,7,5,0.4320000410079956,1,25,13,2.1839003562927246,325,133,36
FALSE,2.5999999046325684,7,6,0.3184999823570251,0,36,14,2.234100341796875,361,134,36
TRUE,2.5999999046325684,7,8,0.5264999270439148,0,-10,15,3.2983992099761963,351,135,36
FALSE,2.5999999046325684,7,6,0.3184999823570251,0,36,16,1.815800666809082,387,136,36
FALSE,4.800000190734863,7,5,0.4320000410079956,1,25,17,2.467600107192993,412,137,36
FALSE,2.5999999046325684,7,7,0.4160000085830688,0,49,18,2.049201250076294,461,138,36
FALSE,4.800000190734863,7,6,0.5879999995231628,1,36,19,2.185200452804565,497,139,36
TRUE,2.5999999046325684,7,9,0.6499999761581421,0,-10,2,3.199298858642578,-20,122,36
FALSE,2.5999999046325684,7,5,0.2339999973773956,0,25,20,2.663501024246216,522,140,36
TRUE,2.5999999046325684,7,9,0.6499999761581421,0,-10,21,2.5662999153137207,512,141,36
FALSE,4.800000190734863,7,5,0.4320000410079956,1,25,22,1.814600944519043,537,142,36
TRUE,4.800000190734863,7,6,0.5879999995231628,1,-10,23,1.703300714492798,527,143,36
TRUE,4.800000190734863,7,6,0.5879999995231628,1,-10,24,1.635000705718994,517,144,36
TRUE,4.800000190734863,7,5,0.4320000410079956,1,-10,25,1.866300225257873,507,145,36
FALSE,4.800000190734863,7,4,0.3000000119209289,1,16,26,1.5002005100250244,523,146,36
FALSE,4.800000190734863,7,5,0.4320000410079956,1,25,27,2.083301067352295,548,147,36
FALSE,4.800000190734863,7,5,0.4320000410079956,1,25,28,2.2850000858306885,573,148,36
TRUE,2.5999999046325684,7,9,0.6499999761581421,0,-10,29,2.852799654006958,563,149,36
TRUE,2.5999999046325684,7,9,0.6499999761581421,0,-10,3,2.978800058364868,-30,123,36
FALSE,2.5999999046325684,7,9,0.6499999761581421,0,81,30,3.1503994464874268,644,150,36
FALSE,4.800000190734863,7,6,0.5879999995231628,1,36,4,2.421599864959717,6,124,36
FALSE,2.5999999046325684,7,9,0.6499999761581421,0,81,5,2.684699535369873,87,125,36
FALSE,4.800000190734863,7,4,0.3000000119209289,1,16,6,1.7520008087158203,103,126,36
FALSE,2.5999999046325684,7,7,0.4160000085830688,0,49,7,2.936498641967773,152,127,36
FALSE,4.800000190734863,7,5,0.4320000410079956,1,25,8,2.6813998222351074,177,128,36
FALSE,4.800000190734863,7,4,0.3000000119209289,1,16,9,2.8488006591796875,193,129,36
TRUE,2.5999999046325684,7,7,0.4160000085830688,0,-10,1,10.550488471984863,-10,1,37
TRUE,2.5999999046325684,7,9,0.6499999761581421,0,-10,10,3.188598871231079,-9,10,37
FALSE,4.800000190734863,7,5,0.4320000410079956,1,25,100,7.451893806457519,214,100,37
FALSE,4.800000190734863,7,4,0.3000000119209289,1,16,101,2.086600542068481,230,101,37
FALSE,2.5999999046325684,7,5,0.2339999973773956,0,25,102,2.335799694,255,102,37
FALSE,4.800000190734863,7,5,0.4320000410079956,1,25,103,2.470700740814209,280,103,37
FALSE,4.800000190734863,7,5,0.4320000410079956,1,25,104,3.436499118804932,305,104,37
FALSE,4.800000190734863,7,5,0.4320000410079956,1,25,105,1.853500485420227,330,105,37
FALSE,4.800000190734863,7,4,0.3000000119209289,1,16,106,2.0204007625579834,346,106,37
FALSE,4.800000190734863,7,4,0.3000000119209289,1,16,107,1.637000560760498,362,107,37
TRUE,2.5999999046325684,7,5,0.2339999973773956,0,-10,108,2.435800075531006,352,108,37
FALSE,2.5999999046325684,7,4,0.1624999940395355,0,16,109,2.0869007110595703,368,109,37
TRUE,2.5999999046325684,7,9,0.6499999761581421,0,-10,11,4.073298454284668,-19,11,37
FALSE,2.5999999046325684,7,4,0.1624999940395355,0,16,110,2.986600637435913,384,110,37
FALSE,2.5999999046325684,7,4,0.1624999940395355,0,16,111,1.6058003902435305,400,111,37
FALSE,2.5999999046325684,7,4,0.1624999940395355,0,16,112,1.6031005382537842,416,112,37
FALSE,2.5999999046325684,7,5,0.2339999973773956,0,25,113,2.286700487136841,441,113,37
TRUE,2.5999999046325684,7,5,0.2339999973773956,0,-10,114,1.4710004329681396,431,114,37
FALSE,4.800000190734863,7,3,0.1920000165700912,1,9,115,1.791900873184204,440,115,37
TRUE,2.5999999046325684,7,3,0.1040000021457672,0,-10,116,1.486301064491272,430,116,37
TRUE,4.800000190734863,7,4,0.3000000119209289,1,-10,117,3.769197463989258,420,117,37
FALSE,4.800000190734863,7,2,0,1,4,118,1.602701187133789,424,118,37
FALSE,2.5999999046325684,7,2,0,0,4,119,1.618700385093689,428,119,37
TRUE,4.800000190734863,7,9,1.2000000476837158,1,-10,12,2.9708001613616943,-29,12,37
FALSE,4.800000190734863,7,2,0,1,4,120,2.0367016792297363,432,120,37
