,attack,attackProb,attackRange,choice,currProb,predatorType,reward,round,rt,totMoney,trial,subID
0,TRUE,2.5999999046325684,7,9,0.6499999761581421,0,-10,1,9.879696846,-10,1,18
1,FALSE,4.800000190734863,7,3,0.1920000165700912,1,9,10,2.0896012783050537,39,10,18
2,TRUE,4.800000190734863,7,5,0.4320000410079956,1,-10,100,1.5877996683120728,1088,100,18
3,TRUE,4.800000190734863,7,6,0.5879999995231628,1,-10,101,1.6565001010894775,1078,101,18
4,FALSE,4.800000190734863,7,4,0.3000000119209289,1,16,102,0.7541000843048096,1094,102,18
5,TRUE,4.800000190734863,7,5,0.4320000410079956,1,-10,103,1.4545000791549685,1084,103,18
6,TRUE,4.800000190734863,7,6,0.5879999995231628,1,-10,104,3.623699665,1074,104,18
7,TRUE,2.5999999046325684,7,9,0.6499999761581421,0,-10,105,2.355999231338501,1064,105,18
8,FALSE,4.800000190734863,7,4,0.3000000119209289,1,16,106,1.8712999820709229,1080,106,18
9,FALSE,4.800000190734863,7,3,0.1920000165700912,1,9,107,1.2044001817703247,1089,107,18
10,FALSE,4.800000190734863,7,4,0.3000000119209289,1,16,108,1.5719996690750122,1105,108,18
11,FALSE,4.800000190734863,7,4,0.3000000119209289,1,16,109,1.1381999254226685,1121,109,18
12,FALSE,2.5999999046325684,7,4,0.1624999940395355,0,16,11,3.4905991554260254,55,11,18
13,TRUE,4.800000190734863,7,9,1.2000000476837158,1,-10,110,2.3059003353118896,1111,110,18
14,TRUE,4.800000190734863,7,9,1.2000000476837158,1,-10,111,2.755499839782715,1101,111,18
15,TRUE,2.5999999046325684,7,9,0.6499999761581421,0,-10,112,1.8220998048782349,1091,112,18
16,TRUE,2.5999999046325684,7,9,0.6499999761581421,0,-10,113,1.6547001600265503,1081,113,18
17,FALSE,2.5999999046325684,7,9,0.6499999761581421,0,81,114,1.7544995546340942,1162,114,18
18,TRUE,2.5999999046325684,7,9,0.6499999761581421,0,-10,115,2.4221997261047363,1152,115,18
19,FALSE,4.800000190734863,7,4,0.3000000119209289,1,16,116,1.872900485992432,1168,116,18
20,FALSE,4.800000190734863,7,3,0.1920000165700912,1,9,117,1.2705000638961792,1177,117,18
21,TRUE,4.800000190734863,7,5,0.4320000410079956,1,-10,118,2.389899253845215,1167,118,18
22,TRUE,4.800000190734863,7,5,0.4320000410079956,1,-10,119,1.255000114440918,1157,119,18
23,FALSE,4.800000190734863,7,4,0.3000000119209289,1,16,12,3.7232978343963614,71,12,18
24,FALSE,2.5999999046325684,7,4,0.1624999940395355,0,16,120,0.6195999979972839,1173,120,18
25,FALSE,4.800000190734863,7,1,0,1,1,13,3.1559982299804688,72,13,18
26,FALSE,2.5999999046325684,7,3,0.1040000021457672,0,9,14,1.6219993829727173,81,14,18
27,FALSE,2.5999999046325684,7,4,0.1624999940395355,0,16,15,1.5720999240875244,97,15,18
28,FALSE,2.5999999046325684,7,5,0.2339999973773956,0,25,16,1.7550002336502075,122,16,18
29,FALSE,2.5999999046325684,7,5,0.2339999973773956,0,25,17,2.089799642562866,147,17,18
30,TRUE,4.800000190734863,7,5,0.4320000410079956,1,-10,18,2.357099294662476,137,18,18
31,TRUE,4.800000190734863,7,6,0.5879999995231628,1,-10,19,3.273900032043457,127,19,18
32,FALSE,4.800000190734863,7,2,0,1,4,2,3.629599332809448,-6,2,18
33,FALSE,4.800000190734863,7,4,0.3000000119209289,1,16,20,1.621500015258789,143,20,18
34,FALSE,4.800000190734863,7,5,0.4320000410079956,1,25,21,2.2047994136810303,168,21,18
35,TRUE,4.800000190734863,7,5,0.4320000410079956,1,-10,22,4.5901970863342285,158,22,18
36,FALSE,2.5999999046325684,7,6,0.3184999823570251,0,36,23,2.855900526046753,194,23,18
37,FALSE,4.800000190734863,7,6,0.5879999995231628,1,36,24,3.589798689,230,24,18
38,TRUE,2.5999999046325684,7,6,0.3184999823570251,0,-10,25,3.257000684738159,220,25,18
39,FALSE,2.5999999046325684,7,4,0.1624999940395355,0,16,26,2.654799699783325,236,26,18
40,FALSE,2.5999999046325684,7,6,0.3184999823570251,0,36,27,1.955700159072876,272,27,18
41,FALSE,4.800000190734863,7,2,0,1,4,28,2.371999263763428,276,28,18
42,FALSE,2.5999999046325684,7,5,0.2339999973773956,0,25,29,1.403800368309021,301,29,18
43,FALSE,2.5999999046325684,7,4,0.1624999940395355,0,16,3,26.83057213,10,3,18
44,FALSE,4.800000190734863,7,4,0.3000000119209289,1,16,30,1.4382001161575315,317,30,18
45,FALSE,4.800000190734863,7,3,0.1920000165700912,1,9,31,1.9222992658615112,326,31,18
46,TRUE,4.800000190734863,7,5,0.4320000410079956,1,-10,32,1.7372996807098389,316,32,18
47,TRUE,4.800000190734863,7,5,0.4320000410079956,1,-10,33,2.021599769592285,306,33,18
48,FALSE,2.5999999046325684,7,5,0.2339999973773956,0,25,34,2.8222994804382324,331,34,18
49,FALSE,2.5999999046325684,7,5,0.2339999973773956,0,25,35,1.3203004598617554,356,35,18
50,FALSE,4.800000190734863,7,3,0.1920000165700912,1,9,36,2.172199487686157,365,36,18
51,TRUE,4.800000190734863,7,5,0.4320000410079956,1,-10,37,3.907499074935913,355,37,18
52,TRUE,4.800000190734863,7,9,1.2000000476837158,1,-10,38,2.121600151062012,345,38,18
53,TRUE,2.5999999046325684,7,9,0.6499999761581421,0,-10,39,3.2238998413085938,335,39,18
54,TRUE,4.800000190734863,7,7,0.768000066,1,-10,4,16.003307342529297,0,4,18
55,FALSE,2.5999999046325684,7,9,0.6499999761581421,0,81,40,1.8889002799987795,416,40,18
56,TRUE,2.5999999046325684,7,3,0.1040000021457672,0,-10,41,2.422299623,406,41,18
57,TRUE,2.5999999046325684,7,9,0.6499999761581421,0,-10,42,3.022599935531616,396,42,18
58,TRUE,4.800000190734863,7,9,1.2000000476837158,1,-10,43,2.504599571228028,386,43,18
59,TRUE,4.800000190734863,7,9,1.2000000476837158,1,-10,44,2.605798959732056,376,44,18
60,FALSE,4.800000190734863,7,3,0.1920000165700912,1,9,45,0.8537999391555786,385,45,18
61,FALSE,2.5999999046325684,7,3,0.1040000021457672,0,9,46,1.1201001405715942,394,46,18
62,TRUE,2.5999999046325684,7,9,0.6499999761581421,0,-10,47,2.4391989707946777,384,47,18
63,FALSE,2.5999999046325684,7,4,0.1624999940395355,0,16,48,0.9717000722885132,400,48,18
64,FALSE,2.5999999046325684,7,2,0,0,4,49,1.4378002882003784,404,49,18
65,FALSE,4.800000190734863,7,2,0,1,4,5,23.18291664123535,4,5,18
66,FALSE,4.800000190734863,7,2,0,1,4,50,1.0711002349853516,408,50,18
67,FALSE,2.5999999046325684,7,5,0.2339999973773956,0,25,51,1.3375999927520752,433,51,18
68,FALSE,2.5999999046325684,7,4,0.1624999940395355,0,16,52,1.4047999382019043,449,52,18
69,TRUE,4.800000190734863,7,6,0.5879999995231628,1,-10,53,2.088200330734253,439,53,18
70,FALSE,2.5999999046325684,7,9,0.6499999761581421,0,81,54,2.372699737548828,520,54,18
71,FALSE,2.5999999046325684,7,4,0.1624999940395355,0,16,55,1.3033000230789185,536,55,18
72,FALSE,4.800000190734863,7,4,0.3000000119209289,1,16,56,2.304999828338623,552,56,18
73,FALSE,4.800000190734863,7,6,0.5879999995231628,1,36,57,1.504199743270874,588,57,18
74,FALSE,4.800000190734863,7,4,0.3000000119209289,1,16,58,1.470999836921692,604,58,18
75,FALSE,2.5999999046325684,7,4,0.1624999940395355,0,16,59,2.406499624,620,59,18
76,FALSE,4.800000190734863,7,4,0.3000000119209289,1,16,6,3.606998682022095,20,6,18
77,FALSE,2.5999999046325684,7,9,0.6499999761581421,0,81,60,3.006500005722046,701,60,18
78,TRUE,4.800000190734863,7,4,0.3000000119209289,1,-10,61,1.5048998594284058,691,61,18
79,FALSE,2.5999999046325684,7,2,0,0,4,62,1.7391998767852783,695,62,18
80,FALSE,4.800000190734863,7,4,0.3000000119209289,1,16,63,1.1546000242233276,711,63,18
81,TRUE,2.5999999046325684,7,8,0.5264999270439148,0,-10,64,2.8563992977142334,701,64,18
82,FALSE,2.5999999046325684,7,9,0.6499999761581421,0,81,65,1.871900200843811,782,65,18
83,TRUE,2.5999999046325684,7,3,0.1040000021457672,0,-10,66,1.8549997806549072,772,66,18
84,TRUE,2.5999999046325684,7,9,0.6499999761581421,0,-10,67,2.740000963,762,67,18
85,FALSE,4.800000190734863,7,4,0.3000000119209289,1,16,68,1.0709000825881958,778,68,18
86,FALSE,2.5999999046325684,7,9,0.6499999761581421,0,81,69,2.472099066,859,69,18
87,FALSE,2.5999999046325684,7,4,0.1624999940395355,0,16,7,2.7619993686676025,36,7,18
88,TRUE,4.800000190734863,7,3,0.1920000165700912,1,-10,70,1.3058998584747314,849,70,18
89,FALSE,4.800000190734863,7,1,0,1,1,71,1.571699857711792,850,71,18
90,FALSE,2.5999999046325684,7,9,0.6499999761581421,0,81,72,2.389599323272705,931,72,18
91,TRUE,2.5999999046325684,7,3,0.1040000021457672,0,-10,73,1.1375000476837158,921,73,18
92,FALSE,4.800000190734863,7,2,0,1,4,74,0.8211999535560608,925,74,18
93,TRUE,2.5999999046325684,7,9,0.6499999761581421,0,-10,75,2.589199542999268,915,75,18
94,FALSE,2.5999999046325684,7,9,0.6499999761581421,0,81,76,1.9870003461837769,996,76,18
95,FALSE,4.800000190734863,7,2,0,1,4,77,1.622199773788452,1000,77,18
96,FALSE,2.5999999046325684,7,3,0.1040000021457672,0,9,78,2.02210021,1009,78,18
97,FALSE,2.5999999046325684,7,3,0.1040000021457672,0,9,79,1.2533997297286987,1018,79,18
98,FALSE,2.5999999046325684,7,2,0,0,4,8,3.4901986122131348,40,8,18
99,TRUE,2.5999999046325684,7,9,0.6499999761581421,0,-10,80,2.756299495697021,1008,80,18
100,FALSE,2.5999999046325684,7,9,0.6499999761581421,0,81,81,1.6540005207061768,1089,81,18
101,FALSE,2.5999999046325684,7,3,0.1040000021457672,0,9,82,1.1037999391555786,1098,82,18
102,FALSE,4.800000190734863,7,5,0.4320000410079956,1,25,83,1.538299798965454,1123,83,18
103,FALSE,2.5999999046325684,7,3,0.1040000021457672,0,9,84,1.1549999713897705,1132,84,18
104,TRUE,4.800000190734863,7,9,1.2000000476837158,1,-10,85,2.4892001152038574,1122,85,18
105,TRUE,4.800000190734863,7,9,1.2000000476837158,1,-10,86,2.822499990463257,1112,86,18
106,FALSE,2.5999999046325684,7,4,0.1624999940395355,0,16,87,1.3381001949310305,1128,87,18
107,TRUE,4.800000190734863,7,9,1.2000000476837158,1,-10,88,2.2225000858306885,1118,88,18
108,TRUE,4.800000190734863,7,9,1.2000000476837158,1,-10,89,1.9717998504638672,1108,89,18
109,TRUE,4.800000190734863,7,9,1.2000000476837158,1,-10,9,3.723599672317505,30,9,18
110,FALSE,2.5999999046325684,7,4,0.1624999940395355,0,16,90,1.0886000394821167,1124,90,18
111,TRUE,4.800000190734863,7,7,0.768000066,1,-10,91,3.223299264907837,1114,91,18
112,TRUE,2.5999999046325684,7,6,0.3184999823570251,0,-10,92,1.3381999731063845,1104,92,18
113,TRUE,4.800000190734863,7,9,1.2000000476837158,1,-10,93,2.072300434112549,1094,93,18
114,FALSE,2.5999999046325684,7,3,0.1040000021457672,0,9,94,0.9212999939918518,1103,94,18
115,FALSE,2.5999999046325684,7,4,0.1624999940395355,0,16,95,1.0038000345230105,1119,95,18
116,TRUE,2.5999999046325684,7,9,0.6499999761581421,0,-10,96,1.922300100326538,1109,96,18
117,TRUE,2.5999999046325684,7,9,0.6499999761581421,0,-10,97,1.5717004537582395,1099,97,18
118,TRUE,2.5999999046325684,7,9,0.6499999761581421,0,-10,98,2.072499990463257,1089,98,18
119,FALSE,4.800000190734863,7,3,0.1920000165700912,1,9,99,1.9234994649887085,1098,99,18
120,FALSE,2.5999999046325684,7,3,0.1040000021457672,0,9,1,2.850600004196167,9,1,14
121,TRUE,4.800000190734863,7,6,0.5879999995231628,1,-10,10,1.9552010297775269,199,10,14
122,FALSE,4.800000190734863,7,4,0.3000000119209289,1,16,100,1.919800877571106,1068,100,14
123,FALSE,4.800000190734863,7,4,0.3000000119209289,1,16,101,1.937400460243225,1084,101,14
124,FALSE,4.800000190734863,7,4,0.3000000119209289,1,16,102,1.6694004535675049,1100,102,14
125,FALSE,4.800000190734863,7,4,0.3000000119209289,1,16,103,1.4869002103805542,1116,103,14
126,FALSE,4.800000190734863,7,4,0.3000000119209289,1,16,104,1.470800518989563,1132,104,14
127,TRUE,2.5999999046325684,7,6,0.3184999823570251,0,-10,105,1.8548009395599363,1122,105,14
128,TRUE,4.800000190734863,7,4,0.3000000119209289,1,-10,106,1.6368005275726318,1112,106,14
129,FALSE,4.800000190734863,7,5,0.4320000410079956,1,25,107,1.4031004905700684,1137,107,14
130,TRUE,4.800000190734863,7,5,0.4320000410079956,1,-10,108,2.669499158859253,1127,108,14
131,FALSE,4.800000190734863,7,6,0.5879999995231628,1,36,109,1.9369012117385864,1163,109,14
132,FALSE,2.5999999046325684,7,4,0.1624999940395355,0,16,11,1.902501106262207,215,11,14
133,FALSE,4.800000190734863,7,7,0.768000066,1,49,110,1.7695003747940063,1212,110,14
134,TRUE,4.800000190734863,7,8,0.9719999432563782,1,-10,111,2.2522006034851074,1202,111,14
135,FALSE,2.5999999046325684,7,5,0.2339999973773956,0,25,112,1.820001006126404,1227,112,14
136,FALSE,2.5999999046325684,7,5,0.2339999973773956,0,25,113,1.4198004007339478,1252,113,14
137,FALSE,2.5999999046325684,7,5,0.2339999973773956,0,25,114,1.7028008699417114,1277,114,14
138,FALSE,2.5999999046325684,7,5,0.2339999973773956,0,25,115,1.4702006578445437,1302,115,14
139,TRUE,4.800000190734863,7,6,0.5879999995231628,1,-10,116,1.6874006986618042,1292,116,14
140,FALSE,4.800000190734863,7,2,0,1,4,117,0.7027999758720398,1296,117,14
141,TRUE,4.800000190734863,7,3,0.1920000165700912,1,-10,118,1.637300729751587,1286,118,14
142,FALSE,4.800000190734863,7,2,0,1,4,119,2.320500612258911,1290,119,14
143,TRUE,4.800000190734863,7,5,0.4320000410079956,1,-10,12,1.9025007486343384,205,12,14
144,TRUE,2.5999999046325684,7,6,0.3184999823570251,0,-10,120,2.337200642,1280,120,14
145,FALSE,4.800000190734863,7,4,0.3000000119209289,1,16,13,1.786800503730774,221,13,14
146,FALSE,2.5999999046325684,7,6,0.3184999823570251,0,36,14,2.968799829483032,257,14,14
147,FALSE,2.5999999046325684,7,6,0.3184999823570251,0,36,15,1.7536003589630127,293,15,14
148,TRUE,2.5999999046325684,7,6,0.3184999823570251,0,-10,16,2.172400712966919,283,16,14
149,TRUE,2.5999999046325684,7,5,0.2339999973773956,0,-10,17,1.719700813293457,273,17,14
150,FALSE,4.800000190734863,7,5,0.4320000410079956,1,25,18,2.0537009239196777,298,18,14
151,TRUE,4.800000190734863,7,6,0.5879999995231628,1,-10,19,1.803500771522522,288,19,14
152,FALSE,4.800000190734863,7,6,0.5879999995231628,1,36,2,4.650397777557373,45,2,14
153,TRUE,4.800000190734863,7,5,0.4320000410079956,1,-10,20,2.153201103210449,278,20,14
154,FALSE,4.800000190734863,7,6,0.5879999995231628,1,36,21,2.003300666809082,314,21,14
155,FALSE,4.800000190734863,7,6,0.5879999995231628,1,36,22,2.136800765991211,350,22,14
156,TRUE,2.5999999046325684,7,5,0.2339999973773956,0,-10,23,2.786298990249634,340,23,14
157,FALSE,4.800000190734863,7,6,0.5879999995231628,1,36,24,3.0226995944976807,376,24,14
158,FALSE,2.5999999046325684,7,3,0.1040000021457672,0,9,25,1.1033003330230713,385,25,14
159,TRUE,2.5999999046325684,7,4,0.1624999940395355,0,-10,26,2.386299133300781,375,26,14
160,FALSE,2.5999999046325684,7,3,0.1040000021457672,0,9,27,1.386400818824768,384,27,14
161,TRUE,4.800000190734863,7,6,0.5879999995231628,1,-10,28,2.6035001277923584,374,28,14
162,FALSE,2.5999999046325684,7,3,0.1040000021457672,0,9,29,1.6687008142471311,383,29,14
163,FALSE,2.5999999046325684,7,4,0.1624999940395355,0,16,3,2.3371999263763428,61,3,14
164,TRUE,4.800000190734863,7,9,1.2000000476837158,1,-10,30,2.470000743865967,373,30,14
165,TRUE,4.800000190734863,7,5,0.4320000410079956,1,-10,31,2.070201159,363,31,14
166,FALSE,4.800000190734863,7,4,0.3000000119209289,1,16,32,1.1870999336242676,379,32,14
167,FALSE,4.800000190734863,7,4,0.3000000119209289,1,16,33,1.4204003810882568,395,33,14
168,FALSE,2.5999999046325684,7,3,0.1040000021457672,0,9,34,4.903398036956787,404,34,14
169,FALSE,2.5999999046325684,7,8,0.5264999270439148,0,64,35,2.168900489807129,468,35,14
170,TRUE,4.800000190734863,7,5,0.4320000410079956,1,-10,36,2.3864002227783203,458,36,14
171,FALSE,4.800000190734863,7,3,0.1920000165700912,1,9,37,2.0375008583068848,467,37,14
172,FALSE,4.800000190734863,7,3,0.1920000165700912,1,9,38,1.8694010972976685,476,38,14
173,FALSE,2.5999999046325684,7,8,0.5264999270439148,0,64,39,2.021301031112671,540,39,14
174,FALSE,4.800000190734863,7,6,0.5879999995231628,1,36,4,2.003500699996948,97,4,14
175,TRUE,2.5999999046325684,7,8,0.5264999270439148,0,-10,40,2.8030993938446045,530,40,14
176,FALSE,2.5999999046325684,7,3,0.1040000021457672,0,9,41,1.1364001035690308,539,41,14
177,FALSE,2.5999999046325684,7,4,0.1624999940395355,0,16,42,1.336800456047058,555,42,14
178,TRUE,4.800000190734863,7,5,0.4320000410079956,1,-10,43,1.9869009256362915,545,43,14
179,TRUE,4.800000190734863,7,4,0.3000000119209289,1,-10,44,1.6371008157730105,535,44,14
180,TRUE,4.800000190734863,7,9,1.2000000476837158,1,-10,45,1.955100417137146,525,45,14
181,FALSE,2.5999999046325684,7,7,0.4160000085830688,0,49,46,3.1197986602783203,574,46,14
182,TRUE,2.5999999046325684,7,7,0.4160000085830688,0,-10,47,1.8536006212234497,564,47,14
183,FALSE,2.5999999046325684,7,3,0.1040000021457672,0,9,48,0.803600013,573,48,14
184,FALSE,2.5999999046325684,7,6,0.3184999823570251,0,36,49,1.503800630569458,609,49,14
185,TRUE,4.800000190734863,7,8,0.9719999432563782,1,-10,5,7.636490345001221,87,5,14
186,FALSE,4.800000190734863,7,2,0,1,4,50,2.436900377,613,50,14
187,TRUE,2.5999999046325684,7,6,0.3184999823570251,0,-10,51,2.719699144363404,603,51,14
188,FALSE,2.5999999046325684,7,3,0.1040000021457672,0,9,52,0.8701001405715942,612,52,14
189,TRUE,4.800000190734863,7,6,0.5879999995231628,1,-10,53,2.2037010192871094,602,53,14
190,FALSE,2.5999999046325684,7,3,0.1040000021457672,0,9,54,0.7701001167297363,611,54,14
191,FALSE,2.5999999046325684,7,4,0.1624999940395355,0,16,55,1.2198004722595217,627,55,14
192,TRUE,4.800000190734863,7,6,0.5879999995231628,1,-10,56,1.5533002614974976,617,56,14
193,TRUE,4.800000190734863,7,8,0.9719999432563782,1,-10,57,1.8860000371932983,607,57,14
194,FALSE,4.800000190734863,7,3,0.1920000165700912,1,9,58,0.7867001295089722,616,58,14
195,FALSE,2.5999999046325684,7,3,0.1040000021457672,0,9,59,1.435300112,625,59,14
196,FALSE,4.800000190734863,7,6,0.5879999995231628,1,36,6,2.403501033782959,123,6,14
197,FALSE,2.5999999046325684,7,3,0.1040000021457672,0,9,60,1.237300157546997,634,60,14
198,TRUE,4.800000190734863,7,4,0.3000000119209289,1,-10,61,1.0543999671936035,624,61,14
199,FALSE,2.5999999046325684,7,3,0.1040000021457672,0,9,62,0.9386002421379088,633,62,14
200,FALSE,4.800000190734863,7,1,0,1,1,63,0.5870999693870544,634,63,14
201,FALSE,2.5999999046325684,7,3,0.1040000021457672,0,9,64,1.1698002815246582,643,64,14
202,TRUE,2.5999999046325684,7,3,0.1040000021457672,0,-10,65,0.953400195,633,65,14
203,FALSE,2.5999999046325684,7,7,0.4160000085830688,0,49,66,1.9038007259368896,682,66,14
204,FALSE,2.5999999046325684,7,7,0.4160000085830688,0,49,67,2.2034006118774414,731,67,14
205,FALSE,4.800000190734863,7,3,0.1920000165700912,1,9,68,1.3202006816864014,740,68,14
206,TRUE,2.5999999046325684,7,7,0.4160000085830688,0,-10,69,2.1875011920928955,730,69,14
207,FALSE,2.5999999046325684,7,5,0.2339999973773956,0,25,7,3.0534989833831787,148,7,14
208,TRUE,4.800000190734863,7,4,0.3000000119209289,1,-10,70,1.4867007732391355,720,70,14
209,TRUE,4.800000190734863,7,3,0.1920000165700912,1,-10,71,1.437800645828247,710,71,14
210,TRUE,2.5999999046325684,7,8,0.5264999270439148,0,-10,72,2.070201159,700,72,14
211,FALSE,2.5999999046325684,7,2,0,0,4,73,1.4700007438659668,704,73,14
212,TRUE,4.800000190734863,7,7,0.768000066,1,-10,74,1.6032004356384275,694,74,14
213,FALSE,2.5999999046325684,7,3,0.1040000021457672,0,9,75,1.136700153,703,75,14
214,FALSE,2.5999999046325684,7,4,0.1624999940395355,0,16,76,1.503200888633728,719,76,14
215,FALSE,4.800000190734863,7,6,0.5879999995231628,1,36,77,3.753798246383667,755,77,14
216,FALSE,2.5999999046325684,7,3,0.1040000021457672,0,9,78,2.6368000507354736,764,78,14
217,FALSE,2.5999999046325684,7,4,0.1624999940395355,0,16,79,2.120101213,780,79,14
218,FALSE,2.5999999046325684,7,5,0.2339999973773956,0,25,8,2.153200387954712,173,8,14
219,FALSE,2.5999999046325684,7,4,0.1624999940395355,0,16,80,2.319700241088867,796,80,14
220,FALSE,2.5999999046325684,7,4,0.1624999940395355,0,16,81,1.4870004653930664,812,81,14
221,FALSE,2.5999999046325684,7,4,0.1624999940395355,0,16,82,2.7871992588043213,828,82,14
222,FALSE,4.800000190734863,7,6,0.5879999995231628,1,36,83,2.2702999114990234,864,83,14
223,TRUE,2.5999999046325684,7,4,0.1624999940395355,0,-10,84,2.419901132583618,854,84,14
224,TRUE,4.800000190734863,7,7,0.768000066,1,-10,85,2.5540006160736084,844,85,14
225,FALSE,4.800000190734863,7,5,0.4320000410079956,1,25,86,1.653600811958313,869,86,14
226,FALSE,2.5999999046325684,7,2,0,0,4,87,2.6030991077423096,873,87,14
227,FALSE,4.800000190734863,7,6,0.5879999995231628,1,36,88,1.7873011827468872,909,88,14
228,TRUE,4.800000190734863,7,6,0.5879999995231628,1,-10,89,3.1863996982574463,899,89,14
229,FALSE,4.800000190734863,7,6,0.5879999995231628,1,36,9,2.9706993103027344,209,9,14
230,FALSE,2.5999999046325684,7,4,0.1624999940395355,0,16,90,1.5033005475997925,915,90,14
231,FALSE,4.800000190734863,7,4,0.3000000119209289,1,16,91,1.2036001682281494,931,91,14
232,FALSE,2.5999999046325684,7,4,0.1624999940395355,0,16,92,1.3702001571655271,947,92,14
233,TRUE,4.800000190734863,7,3,0.1920000165700912,1,-10,93,4.470197677612305,937,93,14
234,FALSE,2.5999999046325684,7,5,0.2339999973773956,0,25,94,1.6702005863189695,962,94,14
235,FALSE,2.5999999046325684,7,5,0.2339999973773956,0,25,95,2.5884006023406982,987,95,14
236,FALSE,2.5999999046325684,7,5,0.2339999973773956,0,25,96,2.486400365829468,1012,96,14
237,FALSE,2.5999999046325684,7,5,0.2339999973773956,0,25,97,3.3532989025115967,1037,97,14
238,FALSE,2.5999999046325684,7,5,0.2339999973773956,0,25,98,1.8536008596420288,1062,98,14
239,TRUE,4.800000190734863,7,7,0.768000066,1,-10,99,2.419600009918213,1052,99,14
240,FALSE,2.5999999046325684,7,4,0.1624999940395355,0,16,1,3.719898223876953,16,1,4
241,FALSE,4.800000190734863,7,3,0.1920000165700912,1,9,10,2.8035004138946533,79,10,4
242,FALSE,4.800000190734863,7,2,0,1,4,100,1.202200174331665,888,100,4
243,FALSE,4.800000190734863,7,2,0,1,4,101,1.103699803352356,892,101,4
244,FALSE,4.800000190734863,7,2,0,1,4,102,1.2534003257751465,896,102,4
245,FALSE,4.800000190734863,7,2,0,1,4,103,1.1199002265930176,900,103,4
246,TRUE,4.800000190734863,7,3,0.1920000165700912,1,-10,104,1.586701273918152,890,104,4
247,TRUE,2.5999999046325684,7,5,0.2339999973773956,0,-10,105,2.9363996982574463,880,105,4
248,FALSE,4.800000190734863,7,2,0,1,4,106,1.6369004249572754,884,106,4
249,FALSE,4.800000190734863,7,2,0,1,4,107,1.0703002214431765,888,107,4
250,FALSE,4.800000190734863,7,2,0,1,4,108,19.11933898925781,892,108,4
251,FALSE,4.800000190734863,7,2,0,1,4,109,1.286500334739685,896,109,4
252,FALSE,2.5999999046325684,7,4,0.1624999940395355,0,16,11,6.136193752288818,95,11,4
253,FALSE,4.800000190734863,7,2,0,1,4,110,1.9036011695861816,900,110,4
254,FALSE,4.800000190734863,7,2,0,1,4,111,1.053200125694275,904,111,4
255,FALSE,2.5999999046325684,7,4,0.1624999940395355,0,16,112,137.7261199951172,920,112,4
256,FALSE,2.5999999046325684,7,4,0.1624999940395355,0,16,113,1.7201005220413208,936,113,4
257,FALSE,2.5999999046325684,7,4,0.1624999940395355,0,16,114,1.7867006063461304,952,114,4
258,FALSE,2.5999999046325684,7,4,0.1624999940395355,0,16,115,1.2699004411697388,968,115,4
259,FALSE,4.800000190734863,7,2,0,1,4,116,1.4198006391525269,972,116,4
260,FALSE,4.800000190734863,7,2,0,1,4,117,1.953800797462464,976,117,4
261,FALSE,4.800000190734863,7,2,0,1,4,118,2.2031009197235107,980,118,4
262,FALSE,4.800000190734863,7,2,0,1,4,119,17.10306167602539,984,119,4
263,FALSE,4.800000190734863,7,1,0,1,1,12,1.104000449180603,96,12,4
264,FALSE,2.5999999046325684,7,4,0.1624999940395355,0,16,120,3.0358986854553223,1000,120,4
265,TRUE,4.800000190734863,7,3,0.1920000165700912,1,-10,13,23.003793716430664,86,13,4
266,FALSE,2.5999999046325684,7,4,0.1624999940395355,0,16,14,1.5367003679275513,102,14,4
267,FALSE,2.5999999046325684,7,4,0.1624999940395355,0,16,15,2.120401144,118,15,4
268,FALSE,2.5999999046325684,7,4,0.1624999940395355,0,16,16,3.787598609924317,134,16,4
269,FALSE,2.5999999046325684,7,1,0,0,1,17,2.9868996143341064,135,17,4
270,FALSE,4.800000190734863,7,2,0,1,4,18,3.254099130630493,139,18,4
271,FALSE,4.800000190734863,7,1,0,1,1,19,18.470468521118164,140,19,4
272,FALSE,4.800000190734863,7,4,0.3000000119209289,1,16,2,2.819800853729248,32,2,4
273,TRUE,4.800000190734863,7,3,0.1920000165700912,1,-10,20,2.4856996536254883,130,20,4
274,FALSE,4.800000190734863,7,2,0,1,4,21,1.503300428390503,134,21,4
275,FALSE,4.800000190734863,7,2,0,1,4,22,4.286698818206787,138,22,4
276,TRUE,2.5999999046325684,7,4,0.1624999940395355,0,-10,23,1.8529011011123653,128,23,4
277,FALSE,4.800000190734863,7,3,0.1920000165700912,1,9,24,1.0372002124786377,137,24,4
278,FALSE,2.5999999046325684,7,3,0.1040000021457672,0,9,25,1.436800479888916,146,25,4
279,FALSE,2.5999999046325684,7,4,0.1624999940395355,0,16,26,1.9036012887954712,162,26,4
280,FALSE,2.5999999046325684,7,4,0.1624999940395355,0,16,27,1.9695007801055908,178,27,4
281,FALSE,4.800000190734863,7,2,0,1,4,28,1.953401089,182,28,4
282,FALSE,2.5999999046325684,7,4,0.1624999940395355,0,16,29,1.4533008337020874,198,29,4
283,FALSE,2.5999999046325684,7,5,0.2339999973773956,0,25,3,1.836801290512085,57,3,4
284,FALSE,4.800000190734863,7,4,0.3000000119209289,1,16,30,4.1699981689453125,214,30,4
285,TRUE,4.800000190734863,7,3,0.1920000165700912,1,-10,31,2.4200005531311035,204,31,4
286,FALSE,4.800000190734863,7,2,0,1,4,32,1.7535008192062378,208,32,4
287,FALSE,4.800000190734863,7,3,0.1920000165700912,1,9,33,17.5206356,217,33,4
288,FALSE,2.5999999046325684,7,4,0.1624999940395355,0,16,34,1.3030006885528564,233,34,4
289,FALSE,2.5999999046325684,7,4,0.1624999940395355,0,16,35,1.6540005207061768,249,35,4
290,FALSE,4.800000190734863,7,2,0,1,4,36,1.202600598335266,253,36,4
291,FALSE,4.800000190734863,7,3,0.1920000165700912,1,9,37,2.987999439239502,262,37,4
292,TRUE,4.800000190734863,7,3,0.1920000165700912,1,-10,38,1.341700315475464,252,38,4
293,FALSE,2.5999999046325684,7,4,0.1624999940395355,0,16,39,2.103400468826294,268,39,4
294,TRUE,4.800000190734863,7,5,0.4320000410079956,1,-10,4,1.7874008417129517,47,4,4
295,FALSE,2.5999999046325684,7,4,0.1624999940395355,0,16,40,2.719998836517334,284,40,4
296,FALSE,2.5999999046325684,7,3,0.1040000021457672,0,9,41,1.4031002521514893,293,41,4
297,FALSE,2.5999999046325684,7,6,0.3184999823570251,0,36,42,2.7532010078430176,329,42,4
298,TRUE,4.800000190734863,7,7,0.768000066,1,-10,43,2.7537994384765625,319,43,4
299,TRUE,4.800000190734863,7,4,0.3000000119209289,1,-10,44,1.2870004177093506,309,44,4
300,FALSE,4.800000190734863,7,2,0,1,4,45,1.4372001886367798,313,45,4
301,FALSE,2.5999999046325684,7,4,0.1624999940395355,0,16,46,2.3369007110595703,329,46,4
302,TRUE,2.5999999046325684,7,4,0.1624999940395355,0,-10,47,1.869901180267334,319,47,4
303,FALSE,2.5999999046325684,7,3,0.1040000021457672,0,9,48,267.4515075683594,328,48,4
304,FALSE,2.5999999046325684,7,3,0.1040000021457672,0,9,49,1.4023003578186035,337,49,4
305,TRUE,4.800000190734863,7,4,0.3000000119209289,1,-10,5,2.420400619506836,37,5,4
306,FALSE,4.800000190734863,7,3,0.1920000165700912,1,9,50,1.5200005769729614,346,50,4
307,FALSE,2.5999999046325684,7,1,0,0,1,51,5.404295444488525,347,51,4
308,FALSE,2.5999999046325684,7,3,0.1040000021457672,0,9,52,0.802800179,356,52,4
309,FALSE,4.800000190734863,7,1,0,1,1,53,1.170100212097168,357,53,4
310,FALSE,2.5999999046325684,7,5,0.2339999973773956,0,25,54,1.286800503730774,382,54,4
311,FALSE,2.5999999046325684,7,6,0.3184999823570251,0,36,55,1.9697009325027464,418,55,4
312,TRUE,4.800000190734863,7,8,0.9719999432563782,1,-10,56,2.370300769805908,408,56,4
313,TRUE,4.800000190734863,7,9,1.2000000476837158,1,-10,57,2.3201005458831787,398,57,4
314,FALSE,4.800000190734863,7,3,0.1920000165700912,1,9,58,3.070398330688477,407,58,4
315,FALSE,2.5999999046325684,7,5,0.2339999973773956,0,25,59,3.786597490310669,432,59,4
316,FALSE,4.800000190734863,7,3,0.1920000165700912,1,9,6,2.286900520324707,46,6,4
317,FALSE,2.5999999046325684,7,5,0.2339999973773956,0,25,60,3.1366991996765137,457,60,4
318,FALSE,4.800000190734863,7,4,0.3000000119209289,1,16,61,4.620594501495361,473,61,4
319,FALSE,2.5999999046325684,7,1,0,0,1,62,0.6189000606536865,474,62,4
320,FALSE,4.800000190734863,7,3,0.1920000165700912,1,9,63,1.6363003253936768,483,63,4
321,FALSE,2.5999999046325684,7,6,0.3184999823570251,0,36,64,2.153500556945801,519,64,4
322,FALSE,2.5999999046325684,7,5,0.2339999973773956,0,25,65,5.536395072937012,544,65,4
323,FALSE,2.5999999046325684,7,6,0.3184999823570251,0,36,66,1.8699009418487549,580,66,4
324,TRUE,2.5999999046325684,7,5,0.2339999973773956,0,-10,67,2.986799716949463,570,67,4
325,FALSE,4.800000190734863,7,2,0,1,4,68,4.486296177,574,68,4
326,FALSE,2.5999999046325684,7,4,0.1624999940395355,0,16,69,52.05533981323242,590,69,4
327,FALSE,2.5999999046325684,7,5,0.2339999973773956,0,25,7,1.8041009902954104,71,7,4
328,FALSE,4.800000190734863,7,3,0.1920000165700912,1,9,70,2.7358999252319336,599,70,4
329,FALSE,4.800000190734863,7,2,0,1,4,71,4.119898319244385,603,71,4
330,FALSE,2.5999999046325684,7,4,0.1624999940395355,0,16,72,8.053791999816895,619,72,4
331,TRUE,2.5999999046325684,7,4,0.1624999940395355,0,-10,73,1.502400517463684,609,73,4
332,FALSE,4.800000190734863,7,3,0.1920000165700912,1,9,74,0.9867002367973328,618,74,4
333,FALSE,2.5999999046325684,7,5,0.2339999973773956,0,25,75,1.5199010372161863,643,75,4
334,FALSE,2.5999999046325684,7,4,0.1624999940395355,0,16,76,2.103600263595581,659,76,4
335,FALSE,4.800000190734863,7,2,0,1,4,77,1.570000410079956,663,77,4
336,FALSE,2.5999999046325684,7,5,0.2339999973773956,0,25,78,2.403299331665039,688,78,4
337,TRUE,2.5999999046325684,7,4,0.1624999940395355,0,-10,79,8.503889083862305,678,79,4
338,TRUE,2.5999999046325684,7,6,0.3184999823570251,0,-10,8,1.9868013858795168,61,8,4
339,FALSE,2.5999999046325684,7,5,0.2339999973773956,0,25,80,4.787495136260986,703,80,4
340,FALSE,2.5999999046325684,7,4,0.1624999940395355,0,16,81,1.803700804710388,719,81,4
341,FALSE,2.5999999046325684,7,4,0.1624999940395355,0,16,82,1.6036001443862915,735,82,4
342,FALSE,4.800000190734863,7,3,0.1920000165700912,1,9,83,64.47216033935547,744,83,4
343,FALSE,2.5999999046325684,7,4,0.1624999940395355,0,16,84,2.369900941848755,760,84,4
344,FALSE,4.800000190734863,7,3,0.1920000165700912,1,9,85,1.5702002048492432,769,85,4
345,FALSE,4.800000190734863,7,3,0.1920000165700912,1,9,86,2.3698995113372803,778,86,4
346,TRUE,2.5999999046325684,7,5,0.2339999973773956,0,-10,87,1.8032013177871704,768,87,4
347,TRUE,4.800000190734863,7,3,0.1920000165700912,1,-10,88,1.1699002981185913,758,88,4
348,FALSE,4.800000190734863,7,2,0,1,4,89,1.6203010082244873,762,89,4
349,FALSE,4.800000190734863,7,3,0.1920000165700912,1,9,9,1.7033010721206665,70,9,4
350,FALSE,2.5999999046325684,7,5,0.2339999973773956,0,25,90,1.2366002798080444,787,90,4
351,FALSE,4.800000190734863,7,2,0,1,4,91,1.9033008813858032,791,91,4
352,FALSE,2.5999999046325684,7,5,0.2339999973773956,0,25,92,1.4364006519317627,816,92,4
353,FALSE,4.800000190734863,7,2,0,1,4,93,1.4868004322052002,820,93,4
354,FALSE,2.5999999046325684,7,5,0.2339999973773956,0,25,94,1.0349003076553345,845,94,4
355,TRUE,2.5999999046325684,7,5,0.2339999973773956,0,-10,95,1.571500539779663,835,95,4
356,FALSE,2.5999999046325684,7,5,0.2339999973773956,0,25,96,1.636700153,860,96,4
357,FALSE,2.5999999046325684,7,5,0.2339999973773956,0,25,97,1.7529008388519287,885,97,4
358,TRUE,2.5999999046325684,7,5,0.2339999973773956,0,-10,98,1.3365004062652588,875,98,4
359,FALSE,4.800000190734863,7,3,0.1920000165700912,1,9,99,1.9016004800796509,884,99,4
360,FALSE,2.5999999046325684,7,6,0.3184999823570251,0,36,1,22.922117233276367,36,1,0
361,FALSE,4.800000190734863,7,4,0.3000000119209289,1,16,10,4.524098873138428,239,10,0
362,FALSE,4.800000190734863,7,2,0,1,4,100,1.005600094795227,1827,100,0
363,FALSE,4.800000190734863,7,2,0,1,4,101,2.320699691772461,1831,101,0
364,FALSE,4.800000190734863,7,2,0,1,4,102,1.005500078201294,1835,102,0
365,FALSE,4.800000190734863,7,2,0,1,4,103,0.8385000228881836,1839,103,0
366,FALSE,4.800000190734863,7,2,0,1,4,104,0.937000036,1843,104,0
367,TRUE,2.5999999046325684,7,7,0.4160000085830688,0,-10,105,1.9375,1833,105,0
368,FALSE,4.800000190734863,7,2,0,1,4,106,1.038499951,1837,106,0
369,FALSE,4.800000190734863,7,3,0.1920000165700912,1,9,107,1.9554998874664309,1846,107,0
370,FALSE,4.800000190734863,7,3,0.1920000165700912,1,9,108,1.7042001485824585,1855,108,0
371,FALSE,4.800000190734863,7,3,0.1920000165700912,1,9,109,1.1708999872207642,1864,109,0
372,TRUE,2.5999999046325684,7,7,0.4160000085830688,0,-10,11,5.441197395324707,229,11,0
373,FALSE,4.800000190734863,7,3,0.1920000165700912,1,9,110,1.0547000169754028,1873,110,0
374,FALSE,4.800000190734863,7,3,0.1920000165700912,1,9,111,1.0213000774383545,1882,111,0
375,FALSE,2.5999999046325684,7,7,0.4160000085830688,0,49,112,1.9047999382019043,1931,112,0
376,FALSE,2.5999999046325684,7,7,0.4160000085830688,0,49,113,1.6539994478225708,1980,113,0
377,FALSE,2.5999999046325684,7,7,0.4160000085830688,0,49,114,1.687600016593933,2029,114,0
378,FALSE,2.5999999046325684,7,7,0.4160000085830688,0,49,115,2.521900415420532,2078,115,0
379,FALSE,4.800000190734863,7,3,0.1920000165700912,1,9,116,2.121300220489502,2087,116,0
380,FALSE,4.800000190734863,7,3,0.1920000165700912,1,9,117,1.4045997858047483,2096,117,0
381,FALSE,4.800000190734863,7,3,0.1920000165700912,1,9,118,1.2871999740600586,2105,118,0
382,FALSE,4.800000190734863,7,3,0.1920000165700912,1,9,119,2.1033997535705566,2114,119,0
383,FALSE,4.800000190734863,7,4,0.3000000119209289,1,16,12,3.538398504257202,245,12,0
384,TRUE,2.5999999046325684,7,9,0.6499999761581421,0,-10,120,2.738198757171631,2104,120,0
385,FALSE,4.800000190734863,7,4,0.3000000119209289,1,16,13,2.237999439239502,261,13,0
386,TRUE,2.5999999046325684,7,7,0.4160000085830688,0,-10,14,6.859198093414307,251,14,0
387,TRUE,2.5999999046325684,7,6,0.3184999823570251,0,-10,15,2.988200187683105,241,15,0
388,FALSE,2.5999999046325684,7,6,0.3184999823570251,0,36,16,2.4039995670318604,277,16,0
389,FALSE,2.5999999046325684,7,6,0.3184999823570251,0,36,17,2.522299289703369,313,17,0
390,TRUE,4.800000190734863,7,4,0.3000000119209289,1,-10,18,3.223998785018921,303,18,0
391,FALSE,4.800000190734863,7,4,0.3000000119209289,1,16,19,2.5207996368408203,319,19,0
392,FALSE,4.800000190734863,7,6,0.5879999995231628,1,36,2,5.639198780059815,72,2,0
393,FALSE,4.800000190734863,7,4,0.3000000119209289,1,16,20,1.787599802017212,335,20,0
394,FALSE,4.800000190734863,7,4,0.3000000119209289,1,16,21,1.8380998373031616,351,21,0
395,FALSE,4.800000190734863,7,4,0.3000000119209289,1,16,22,1.4234000444412231,367,22,0
396,FALSE,2.5999999046325684,7,8,0.5264999270439148,0,64,23,5.742598533630371,431,23,0
397,FALSE,4.800000190734863,7,4,0.3000000119209289,1,16,24,1.5553998947143557,447,24,0
398,FALSE,2.5999999046325684,7,8,0.5264999270439148,0,64,25,2.937199592590332,511,25,0
399,TRUE,2.5999999046325684,7,9,0.6499999761581421,0,-10,26,3.806699275970459,501,26,0
400,FALSE,2.5999999046325684,7,9,0.6499999761581421,0,81,27,3.021399974822998,582,27,0
401,TRUE,4.800000190734863,7,4,0.3000000119209289,1,-10,28,3.3553988933563232,572,28,0
402,FALSE,2.5999999046325684,7,9,0.6499999761581421,0,81,29,2.858199358,653,29,0
403,FALSE,2.5999999046325684,7,6,0.3184999823570251,0,36,3,3.122900009155273,108,3,0
404,FALSE,4.800000190734863,7,3,0.1920000165700912,1,9,30,3.990999460220337,662,30,0
405,FALSE,4.800000190734863,7,3,0.1920000165700912,1,9,31,1.0868998765945437,671,31,0
406,FALSE,4.800000190734863,7,3,0.1920000165700912,1,9,32,1.303999900817871,680,32,0
407,FALSE,4.800000190734863,7,3,0.1920000165700912,1,9,33,1.188400149345398,689,33,0
408,TRUE,2.5999999046325684,7,9,0.6499999761581421,0,-10,34,2.6900994777679443,679,34,0
409,TRUE,2.5999999046325684,7,9,0.6499999761581421,0,-10,35,2.471900463104248,669,35,0
410,FALSE,4.800000190734863,7,3,0.1920000165700912,1,9,36,2.369999885559082,678,36,0
411,FALSE,4.800000190734863,7,4,0.3000000119209289,1,16,37,1.4696998596191406,694,37,0
412,FALSE,4.800000190734863,7,4,0.3000000119209289,1,16,38,1.3046003580093384,710,38,0
413,FALSE,2.5999999046325684,7,9,0.6499999761581421,0,81,39,2.521599769592285,791,39,0
414,TRUE,4.800000190734863,7,6,0.5879999995231628,1,-10,4,4.373499393463135,98,4,0
415,TRUE,2.5999999046325684,7,9,0.6499999761581421,0,-10,40,2.7236008644104004,781,40,0
416,TRUE,2.5999999046325684,7,9,0.6499999761581421,0,-10,41,2.387699604034424,771,41,0
417,TRUE,2.5999999046325684,7,8,0.5264999270439148,0,-10,42,1.954600453,761,42,0
418,FALSE,4.800000190734863,7,4,0.3000000119209289,1,16,43,1.5365999937057495,777,43,0
419,TRUE,4.800000190734863,7,4,0.3000000119209289,1,-10,44,1.1710000038146973,767,44,0
420,FALSE,4.800000190734863,7,4,0.3000000119209289,1,16,45,1.6043999195098877,783,45,0
421,TRUE,2.5999999046325684,7,8,0.5264999270439148,0,-10,46,2.505899429321289,773,46,0
422,TRUE,2.5999999046325684,7,8,0.5264999270439148,0,-10,47,2.038200616836548,763,47,0
423,FALSE,2.5999999046325684,7,8,0.5264999270439148,0,64,48,2.1386001110076904,827,48,0
424,FALSE,2.5999999046325684,7,8,0.5264999270439148,0,64,49,2.172300100326538,891,49,0
425,FALSE,4.800000190734863,7,5,0.4320000410079956,1,25,5,5.053998947143555,123,5,0
426,TRUE,4.800000190734863,7,4,0.3000000119209289,1,-10,50,1.8384002447128296,881,50,0
427,FALSE,2.5999999046325684,7,8,0.5264999270439148,0,64,51,2.5694005489349365,945,51,0
428,TRUE,2.5999999046325684,7,8,0.5264999270439148,0,-10,52,2.4554998874664307,935,52,0
429,FALSE,4.800000190734863,7,3,0.1920000165700912,1,9,53,1.3709995746612549,944,53,0
430,FALSE,2.5999999046325684,7,7,0.4160000085830688,0,49,54,2.603799819946289,993,54,0
431,FALSE,2.5999999046325684,7,7,0.4160000085830688,0,49,55,2.287999629974365,1042,55,0
432,FALSE,4.800000190734863,7,3,0.1920000165700912,1,9,56,2.1877002716064453,1051,56,0
433,TRUE,4.800000190734863,7,3,0.1920000165700912,1,-10,57,1.1577998399734497,1041,57,0
434,FALSE,4.800000190734863,7,3,0.1920000165700912,1,9,58,1.3711997270584106,1050,58,0
435,FALSE,2.5999999046325684,7,8,0.5264999270439148,0,64,59,3.255000352859497,1114,59,0
436,FALSE,4.800000190734863,7,5,0.4320000410079956,1,25,6,2.221899986,148,6,0
437,FALSE,2.5999999046325684,7,7,0.4160000085830688,0,49,60,2.5410001277923584,1163,60,0
438,TRUE,4.800000190734863,7,3,0.1920000165700912,1,-10,61,2.054499864578247,1153,61,0
439,TRUE,2.5999999046325684,7,8,0.5264999270439148,0,-10,62,2.603300094604492,1143,62,0
440,TRUE,4.800000190734863,7,3,0.1920000165700912,1,-10,63,1.3203998804092407,1133,63,0
441,TRUE,2.5999999046325684,7,7,0.4160000085830688,0,-10,64,2.105099916,1123,64,0
442,TRUE,2.5999999046325684,7,7,0.4160000085830688,0,-10,65,2.371998786926269,1113,65,0
443,TRUE,2.5999999046325684,7,7,0.4160000085830688,0,-10,66,2.2712996006011963,1103,66,0
444,TRUE,2.5999999046325684,7,7,0.4160000085830688,0,-10,67,2.8215994834899902,1093,67,0
445,FALSE,4.800000190734863,7,3,0.1920000165700912,1,9,68,1.2201999425888062,1102,68,0
446,FALSE,2.5999999046325684,7,7,0.4160000085830688,0,49,69,2.2544989585876465,1151,69,0
447,FALSE,2.5999999046325684,7,6,0.3184999823570251,0,36,7,2.5554990768432617,184,7,0
448,FALSE,4.800000190734863,7,3,0.1920000165700912,1,9,70,1.3711001873016355,1160,70,0
449,FALSE,4.800000190734863,7,3,0.1920000165700912,1,9,71,2.373899459838867,1169,71,0
450,FALSE,2.5999999046325684,7,7,0.4160000085830688,0,49,72,1.7210999727249146,1218,72,0
451,FALSE,2.5999999046325684,7,7,0.4160000085830688,0,49,73,2.238999843597412,1267,73,0
452,FALSE,4.800000190734863,7,3,0.1920000165700912,1,9,74,2.055600166320801,1276,74,0
453,TRUE,2.5999999046325684,7,7,0.4160000085830688,0,-10,75,2.0876998901367188,1266,75,0
454,FALSE,2.5999999046325684,7,7,0.4160000085830688,0,49,76,1.8371999263763428,1315,76,0
455,FALSE,4.800000190734863,7,3,0.1920000165700912,1,9,77,1.320500373840332,1324,77,0
456,TRUE,2.5999999046325684,7,7,0.4160000085830688,0,-10,78,2.237999916,1314,78,0
457,FALSE,2.5999999046325684,7,7,0.4160000085830688,0,49,79,2.354700803756714,1363,79,0
458,FALSE,2.5999999046325684,7,7,0.4160000085830688,0,49,8,3.570298910140991,233,8,0
459,FALSE,2.5999999046325684,7,7,0.4160000085830688,0,49,80,3.5562007427215576,1412,80,0
460,FALSE,2.5999999046325684,7,7,0.4160000085830688,0,49,81,2.2228000164031982,1461,81,0
461,FALSE,2.5999999046325684,7,7,0.4160000085830688,0,49,82,1.9537997245788568,1510,82,0
462,TRUE,4.800000190734863,7,3,0.1920000165700912,1,-10,83,1.2047001123428345,1500,83,0
463,FALSE,2.5999999046325684,7,7,0.4160000085830688,0,49,84,2.7868993282318115,1549,84,0
464,TRUE,4.800000190734863,7,3,0.1920000165700912,1,-10,85,1.5043998956680298,1539,85,0
465,TRUE,4.800000190734863,7,3,0.1920000165700912,1,-10,86,1.8884998559951784,1529,86,0
466,FALSE,2.5999999046325684,7,7,0.4160000085830688,0,49,87,1.9388002157211304,1578,87,0
467,FALSE,4.800000190734863,7,2,0,1,4,88,1.254200100898743,1582,88,0
468,FALSE,4.800000190734863,7,2,0,1,4,89,0.9884999990463256,1586,89,0
469,TRUE,4.800000190734863,7,5,0.4320000410079956,1,-10,9,2.487000226974488,223,9,0
470,FALSE,2.5999999046325684,7,7,0.4160000085830688,0,49,90,2.3389992713928223,1635,90,0
471,FALSE,4.800000190734863,7,2,0,1,4,91,1.139100193977356,1639,91,0
472,FALSE,2.5999999046325684,7,7,0.4160000085830688,0,49,92,2.1872997283935547,1688,92,0
473,FALSE,4.800000190734863,7,2,0,1,4,93,0.9545999765396118,1692,93,0
474,TRUE,2.5999999046325684,7,7,0.4160000085830688,0,-10,94,2.8725993633270264,1682,94,0
475,FALSE,2.5999999046325684,7,7,0.4160000085830688,0,49,95,2.7060985565185547,1731,95,0
476,TRUE,2.5999999046325684,7,7,0.4160000085830688,0,-10,96,2.256099224090576,1721,96,0
477,FALSE,2.5999999046325684,7,7,0.4160000085830688,0,49,97,1.509200096130371,1770,97,0
478,FALSE,2.5999999046325684,7,7,0.4160000085830688,0,49,98,1.888099908828736,1819,98,0
479,FALSE,4.800000190734863,7,2,0,1,4,99,1.0205000638961792,1823,99,0
480,TRUE,2.5999999046325684,7,9,0.6499999761581421,0,-10,1,5.108498573303223,-10,1,2
481,FALSE,4.800000190734863,7,5,0.4320000410079956,1,25,10,1.8427951335906985,22,10,2
482,TRUE,4.800000190734863,7,5,0.4320000410079956,1,-10,100,1.5006974935531616,1551,100,2
483,FALSE,4.800000190734863,7,4,0.3000000119209289,1,16,101,0.9544001817703248,1567,101,2
484,FALSE,4.800000190734863,7,4,0.3000000119209289,1,16,102,1.208998680114746,1583,102,2
485,TRUE,4.800000190734863,7,6,0.5879999995231628,1,-10,103,2.2429962158203125,1573,103,2
486,FALSE,4.800000190734863,7,4,0.3000000119209289,1,16,104,1.629996418952942,1589,104,2
487,FALSE,2.5999999046325684,7,6,0.3184999823570251,0,36,105,1.888994812965393,1625,105,2
488,FALSE,4.800000190734863,7,4,0.3000000119209289,1,16,106,1.2923988103866575,1641,106,2
489,TRUE,4.800000190734863,7,4,0.3000000119209289,1,-10,107,1.329598307609558,1631,107,2
490,TRUE,4.800000190734863,7,4,0.3000000119209289,1,-10,108,1.2340985536575315,1621,108,2
491,FALSE,4.800000190734863,7,5,0.4320000410079956,1,25,109,2.0343947410583496,1646,109,2
492,FALSE,2.5999999046325684,7,6,0.3184999823570251,0,36,11,1.721596121788025,58,11,2
493,FALSE,4.800000190734863,7,5,0.4320000410079956,1,25,110,2.364097595214844,1671,110,2
494,TRUE,4.800000190734863,7,4,0.3000000119209289,1,-10,111,1.959794521331787,1661,111,2
495,FALSE,2.5999999046325684,7,5,0.2339999973773956,0,25,112,1.9842945337295528,1686,112,2
496,FALSE,2.5999999046325684,7,5,0.2339999973773956,0,25,113,1.3543981313705444,1711,113,2
497,FALSE,2.5999999046325684,7,5,0.2339999973773956,0,25,114,1.258698582649231,1736,114,2
498,FALSE,2.5999999046325684,7,5,0.2339999973773956,0,25,115,1.0501997470855713,1761,115,2
499,TRUE,4.800000190734863,7,5,0.4320000410079956,1,-10,116,1.36719811,1751,116,2
500,TRUE,4.800000190734863,7,5,0.4320000410079956,1,-10,117,1.1838988065719604,1741,117,2
501,FALSE,4.800000190734863,7,5,0.4320000410079956,1,25,118,1.2798980474472046,1766,118,2
502,FALSE,4.800000190734863,7,4,0.3000000119209289,1,16,119,1.233699083328247,1782,119,2
503,TRUE,4.800000190734863,7,6,0.5879999995231628,1,-10,12,1.3046983480453491,48,12,2
504,TRUE,2.5999999046325684,7,9,0.6499999761581421,0,-10,120,4.0326080322265625,1772,120,2
505,FALSE,4.800000190734863,7,6,0.5879999995231628,1,36,13,1.767695665359497,84,13,2
506,FALSE,2.5999999046325684,7,5,0.2339999973773956,0,25,14,2.030394554138184,109,14,2
507,FALSE,2.5999999046325684,7,7,0.4160000085830688,0,49,15,2.147395372390747,158,15,2
508,FALSE,2.5999999046325684,7,6,0.3184999823570251,0,36,16,1.8009954690933228,194,16,2
509,FALSE,2.5999999046325684,7,8,0.5264999270439148,0,64,17,2.3640968799591064,258,17,2
510,FALSE,4.800000190734863,7,5,0.4320000410079956,1,25,18,1.5966966152191162,283,18,2
511,FALSE,4.800000190734863,7,6,0.5879999995231628,1,36,19,1.938794732093811,319,19,2
512,TRUE,4.800000190734863,7,9,1.2000000476837158,1,-10,2,2.9278011322021484,-20,2,2
513,TRUE,4.800000190734863,7,5,0.4320000410079956,1,-10,20,1.567396879196167,309,20,2
514,TRUE,4.800000190734863,7,9,1.2000000476837158,1,-10,21,3.031500816345215,299,21,2
515,TRUE,4.800000190734863,7,5,0.4320000410079956,1,-10,22,2.5435965061187744,289,22,2
516,FALSE,2.5999999046325684,7,7,0.4160000085830688,0,49,23,2.631000518798828,338,23,2
517,TRUE,4.800000190734863,7,5,0.4320000410079956,1,-10,24,1.8133957386016848,328,24,2
518,FALSE,2.5999999046325684,7,6,0.3184999823570251,0,36,25,1.776195764541626,364,25,2
519,TRUE,2.5999999046325684,7,6,0.3184999823570251,0,-10,26,1.9720946550369265,354,26,2
520,FALSE,2.5999999046325684,7,7,0.4160000085830688,0,49,27,1.830495357513428,403,27,2
521,FALSE,4.800000190734863,7,5,0.4320000410079956,1,25,28,1.759595752,428,28,2
522,FALSE,2.5999999046325684,7,5,0.2339999973773956,0,25,29,2.9898009300231934,453,29,2
523,FALSE,2.5999999046325684,7,4,0.1624999940395355,0,16,3,2.919001340866089,-4,3,2
524,FALSE,4.800000190734863,7,4,0.3000000119209289,1,16,30,1.7883955240249634,469,30,2
525,TRUE,4.800000190734863,7,7,0.768000066,1,-10,31,1.7259961366653442,459,31,2
526,TRUE,4.800000190734863,7,5,0.4320000410079956,1,-10,32,1.6424962282180786,449,32,2
527,FALSE,4.800000190734863,7,4,0.3000000119209289,1,16,33,1.075399637,465,33,2
528,FALSE,2.5999999046325684,7,7,0.4160000085830688,0,49,34,2.780999660491944,514,34,2
529,FALSE,2.5999999046325684,7,7,0.4160000085830688,0,49,35,2.531398057937622,563,35,2
530,FALSE,4.800000190734863,7,5,0.4320000410079956,1,25,36,3.2732033729553223,588,36,2
531,FALSE,4.800000190734863,7,5,0.4320000410079956,1,25,37,2.806500196456909,613,37,2
532,FALSE,4.800000190734863,7,6,0.5879999995231628,1,36,38,1.780195951461792,649,38,2
533,TRUE,2.5999999046325684,7,8,0.5264999270439148,0,-10,39,2.718898296356201,639,39,2
534,FALSE,4.800000190734863,7,5,0.4320000410079956,1,25,4,2.268096685409546,21,4,2
535,FALSE,2.5999999046325684,7,8,0.5264999270439148,0,64,40,1.901195049285889,703,40,2
536,FALSE,2.5999999046325684,7,6,0.3184999823570251,0,36,41,1.9344948530197144,739,41,2
537,FALSE,2.5999999046325684,7,5,0.2339999973773956,0,25,42,1.7011961936950684,764,42,2
538,TRUE,4.800000190734863,7,5,0.4320000410079956,1,-10,43,1.613096833229065,754,43,2
539,FALSE,4.800000190734863,7,4,0.3000000119209289,1,16,44,1.279698610305786,770,44,2
540,FALSE,4.800000190734863,7,5,0.4320000410079956,1,25,45,1.3007981777191162,795,45,2
541,FALSE,2.5999999046325684,7,4,0.1624999940395355,0,16,46,1.2752987146377563,811,46,2
542,FALSE,2.5999999046325684,7,7,0.4160000085830688,0,49,47,2.0511953830718994,860,47,2
543,TRUE,2.5999999046325684,7,7,0.4160000085830688,0,-10,48,1.9760946035385127,850,48,2
544,FALSE,2.5999999046325684,7,7,0.4160000085830688,0,49,49,1.9259949922561648,899,49,2
545,TRUE,4.800000190734863,7,6,0.5879999995231628,1,-10,5,2.3348963260650635,11,5,2
546,TRUE,4.800000190734863,7,5,0.4320000410079956,1,-10,50,1.6885961294174194,889,50,2
547,FALSE,2.5999999046325684,7,7,0.4160000085830688,0,49,51,1.734495997428894,938,51,2
548,FALSE,2.5999999046325684,7,7,0.4160000085830688,0,49,52,2.109595299,987,52,2
549,FALSE,4.800000190734863,7,4,0.3000000119209289,1,16,53,1.801295518875122,1003,53,2
550,FALSE,2.5999999046325684,7,7,0.4160000085830688,0,49,54,5.549691677093506,1052,54,2
551,TRUE,2.5999999046325684,7,7,0.4160000085830688,0,-10,55,1.917794942855835,1042,55,2
552,TRUE,4.800000190734863,7,9,1.2000000476837158,1,-10,56,1.9093950986862185,1032,56,2
553,TRUE,4.800000190734863,7,9,1.2000000476837158,1,-10,57,2.2387969493865967,1022,57,2
554,TRUE,4.800000190734863,7,9,1.2000000476837158,1,-10,58,1.580196976661682,1012,58,2
555,TRUE,2.5999999046325684,7,9,0.6499999761581421,0,-10,59,1.588196873664856,1002,59,2
556,FALSE,4.800000190734863,7,4,0.3000000119209289,1,16,6,2.013794422149658,27,6,2
557,TRUE,2.5999999046325684,7,8,0.5264999270439148,0,-10,60,2.0301942825317383,992,60,2
558,TRUE,4.800000190734863,7,8,0.9719999432563782,1,-10,61,1.7885955572128296,982,61,2
559,FALSE,2.5999999046325684,7,8,0.5264999270439148,0,64,62,1.7174961566925049,1046,62,2
560,FALSE,4.800000190734863,7,5,0.4320000410079956,1,25,63,2.001194953918457,1071,63,2
561,TRUE,2.5999999046325684,7,8,0.5264999270439148,0,-10,64,2.1012954711914062,1061,64,2
562,FALSE,2.5999999046325684,7,7,0.4160000085830688,0,49,65,2.5602972507476807,1110,65,2
563,TRUE,2.5999999046325684,7,7,0.4160000085830688,0,-10,66,1.7800958156585691,1100,66,2
564,TRUE,2.5999999046325684,7,7,0.4160000085830688,0,-10,67,1.901095151901245,1090,67,2
565,TRUE,4.800000190734863,7,5,0.4320000410079956,1,-10,68,1.5048974752426147,1080,68,2
566,FALSE,2.5999999046325684,7,6,0.3184999823570251,0,36,69,1.6688960790634155,1116,69,2
567,TRUE,2.5999999046325684,7,7,0.4160000085830688,0,-10,7,4.282503604888916,17,7,2
568,FALSE,4.800000190734863,7,4,0.3000000119209289,1,16,70,1.2502987384796145,1132,70,2
569,FALSE,4.800000190734863,7,4,0.3000000119209289,1,16,71,1.1255995035171509,1148,71,2
570,FALSE,2.5999999046325684,7,6,0.3184999823570251,0,36,72,2.3515985012054443,1184,72,2
571,FALSE,2.5999999046325684,7,6,0.3184999823570251,0,36,73,1.5299972295761108,1220,73,2
572,TRUE,4.800000190734863,7,5,0.4320000410079956,1,-10,74,1.3588979244232178,1210,74,2
573,FALSE,2.5999999046325684,7,6,0.3184999823570251,0,36,75,1.467597246170044,1246,75,2
574,FALSE,2.5999999046325684,7,6,0.3184999823570251,0,36,76,1.5509968996047974,1282,76,2
575,TRUE,4.800000190734863,7,5,0.4320000410079956,1,-10,77,1.7552958726882937,1272,77,2
576,TRUE,2.5999999046325684,7,6,0.3184999823570251,0,-10,78,1.5882965326309204,1262,78,2
577,FALSE,2.5999999046325684,7,5,0.2339999973773956,0,25,79,1.2379988431930542,1287,79,2
578,TRUE,2.5999999046325684,7,9,0.6499999761581421,0,-10,8,3.0523030757904053,7,8,2
579,FALSE,2.5999999046325684,7,6,0.3184999823570251,0,36,80,1.6132965087890625,1323,80,2
580,FALSE,2.5999999046325684,7,6,0.3184999823570251,0,36,81,2.172395706176758,1359,81,2
581,TRUE,2.5999999046325684,7,6,0.3184999823570251,0,-10,82,1.9472947120666504,1349,82,2
582,TRUE,4.800000190734863,7,5,0.4320000410079956,1,-10,83,1.830395460128784,1339,83,2
583,TRUE,2.5999999046325684,7,6,0.3184999823570251,0,-10,84,1.5423966646194458,1329,84,2
584,FALSE,4.800000190734863,7,4,0.3000000119209289,1,16,85,1.2171984910964966,1345,85,2
585,FALSE,4.800000190734863,7,4,0.3000000119209289,1,16,86,1.1880991458892822,1361,86,2
586,FALSE,2.5999999046325684,7,5,0.2339999973773956,0,25,87,4.975198268890381,1386,87,2
587,FALSE,4.800000190734863,7,4,0.3000000119209289,1,16,88,1.696895956993103,1402,88,2
588,FALSE,4.800000190734863,7,4,0.3000000119209289,1,16,89,1.1462993621826172,1418,89,2
589,TRUE,4.800000190734863,7,9,1.2000000476837158,1,-10,9,2.138795852661133,-3,9,2
590,FALSE,2.5999999046325684,7,6,0.3184999823570251,0,36,90,2.305696964263916,1454,90,2
591,TRUE,4.800000190734863,7,4,0.3000000119209289,1,-10,91,1.6174964904785156,1444,91,2
592,TRUE,2.5999999046325684,7,7,0.4160000085830688,0,-10,92,3.457104682922364,1434,92,2
593,FALSE,4.800000190734863,7,5,0.4320000410079956,1,25,93,1.263298749923706,1459,93,2
594,FALSE,2.5999999046325684,7,6,0.3184999823570251,0,36,94,1.4965972900390625,1495,94,2
595,FALSE,2.5999999046325684,7,5,0.2339999973773956,0,25,95,2.0430946350097656,1520,95,2
596,FALSE,2.5999999046325684,7,5,0.2339999973773956,0,25,96,1.233798623085022,1545,96,2
597,FALSE,2.5999999046325684,7,6,0.3184999823570251,0,36,97,1.4758975505828855,1581,97,2
598,TRUE,2.5999999046325684,7,6,0.3184999823570251,0,-10,98,1.530197024345398,1571,98,2
599,TRUE,4.800000190734863,7,5,0.4320000410079956,1,-10,99,1.4339975118637085,1561,99,2
600,FALSE,2.5999999046325684,7,5,0.2339999973773956,0,25,1,12.52560806274414,25,1,5
601,TRUE,4.800000190734863,7,6,0.5879999995231628,1,-10,10,2.587599754333496,118,10,5
602,FALSE,4.800000190734863,7,4,0.3000000119209289,1,16,100,0.7231001257896423,1380,100,5
603,TRUE,4.800000190734863,7,4,0.3000000119209289,1,-10,101,0.574400008,1370,101,5
604,FALSE,4.800000190734863,7,7,0.768000066,1,49,102,1.0019999742507937,1419,102,5
605,FALSE,4.800000190734863,7,4,0.3000000119209289,1,16,103,0.7633001208305359,1435,103,5
606,TRUE,4.800000190734863,7,6,0.5879999995231628,1,-10,104,0.869100034,1425,104,5
607,FALSE,2.5999999046325684,7,9,0.6499999761581421,0,81,105,1.4227999448776243,1506,105,5
608,FALSE,4.800000190734863,7,5,0.4320000410079956,1,25,106,0.9562999606132508,1531,106,5
609,FALSE,4.800000190734863,7,4,0.3000000119209289,1,16,107,0.6515999436378479,1547,107,5
610,TRUE,4.800000190734863,7,5,0.4320000410079956,1,-10,108,0.9393999576568604,1537,108,5
611,FALSE,4.800000190734863,7,4,0.3000000119209289,1,16,109,0.5700000524520874,1553,109,5
612,TRUE,2.5999999046325684,7,8,0.5264999270439148,0,-10,11,2.151200056,108,11,5
613,FALSE,4.800000190734863,7,5,0.4320000410079956,1,25,110,0.735599935,1578,110,5
614,FALSE,4.800000190734863,7,5,0.4320000410079956,1,25,111,0.8217999339103699,1603,111,5
615,FALSE,2.5999999046325684,7,5,0.2339999973773956,0,25,112,0.8205998539924622,1628,112,5
616,TRUE,2.5999999046325684,7,6,0.3184999823570251,0,-10,113,0.984199882,1618,113,5
617,FALSE,2.5999999046325684,7,6,0.3184999823570251,0,36,114,0.9483999609947203,1654,114,5
618,TRUE,2.5999999046325684,7,7,0.4160000085830688,0,-10,115,1.1213998794555664,1644,115,5
619,TRUE,4.800000190734863,7,6,0.5879999995231628,1,-10,116,0.8185000419616699,1634,116,5
620,TRUE,4.800000190734863,7,9,1.2000000476837158,1,-10,117,1.498900055885315,1624,117,5
621,TRUE,4.800000190734863,7,9,1.2000000476837158,1,-10,118,1.585299730300903,1614,118,5
622,TRUE,4.800000190734863,7,9,1.2000000476837158,1,-10,119,1.373800277709961,1604,119,5
623,TRUE,4.800000190734863,7,8,0.9719999432563782,1,-10,12,1.5190002918243408,98,12,5
624,TRUE,2.5999999046325684,7,9,0.6499999761581421,0,-10,120,2.703499794006348,1594,120,5
625,TRUE,4.800000190734863,7,7,0.768000066,1,-10,13,1.502099871635437,88,13,5
626,TRUE,2.5999999046325684,7,8,0.5264999270439148,0,-10,14,1.703399896621704,78,14,5
627,FALSE,2.5999999046325684,7,4,0.1624999940395355,0,16,15,1.423300028,94,15,5
628,TRUE,2.5999999046325684,7,6,0.3184999823570251,0,-10,16,1.6851006746292114,84,16,5
629,FALSE,2.5999999046325684,7,5,0.2339999973773956,0,25,17,2.051300048828125,109,17,5
630,FALSE,4.800000190734863,7,5,0.4320000410079956,1,25,18,1.2246999740600586,134,18,5
631,FALSE,4.800000190734863,7,6,0.5879999995231628,1,36,19,1.954700231552124,170,19,5
632,TRUE,4.800000190734863,7,4,0.3000000119209289,1,-10,2,26.55380249023437,15,2,5
633,FALSE,4.800000190734863,7,4,0.3000000119209289,1,16,20,2.4245994091033936,186,20,5
634,FALSE,4.800000190734863,7,5,0.4320000410079956,1,25,21,2.274500846862793,211,21,5
635,FALSE,4.800000190734863,7,3,0.1920000165700912,1,9,22,2.754600524902344,220,22,5
636,FALSE,2.5999999046325684,7,5,0.2339999973773956,0,25,23,2.482999801635742,245,23,5
637,TRUE,4.800000190734863,7,7,0.768000066,1,-10,24,2.335300207138061,235,24,5
638,FALSE,2.5999999046325684,7,8,0.5264999270439148,0,64,25,1.707900047302246,299,25,5
639,TRUE,2.5999999046325684,7,8,0.5264999270439148,0,-10,26,2.417499542236328,289,26,5
640,FALSE,2.5999999046325684,7,8,0.5264999270439148,0,64,27,1.739300012588501,353,27,5
641,FALSE,4.800000190734863,7,4,0.3000000119209289,1,16,28,1.43470037,369,28,5
642,FALSE,2.5999999046325684,7,5,0.2339999973773956,0,25,29,1.3692998886108398,394,29,5
643,FALSE,2.5999999046325684,7,5,0.2339999973773956,0,25,3,7.116898059844971,40,3,5
644,FALSE,4.800000190734863,7,4,0.3000000119209289,1,16,30,1.2325999736785889,410,30,5
645,FALSE,4.800000190734863,7,5,0.4320000410079956,1,25,31,0.8393998742103577,435,31,5
646,FALSE,4.800000190734863,7,5,0.4320000410079956,1,25,32,1.2416999340057373,460,32,5
647,TRUE,4.800000190734863,7,4,0.3000000119209289,1,-10,33,1.104699969291687,450,33,5
648,FALSE,2.5999999046325684,7,3,0.1040000021457672,0,9,34,0.9746999740600586,459,34,5
649,TRUE,2.5999999046325684,7,6,0.3184999823570251,0,-10,35,1.121899962425232,449,35,5
650,TRUE,4.800000190734863,7,8,0.9719999432563782,1,-10,36,1.3077998161315918,439,36,5
651,TRUE,4.800000190734863,7,8,0.9719999432563782,1,-10,37,1.3838001489639282,429,37,5
652,TRUE,4.800000190734863,7,8,0.9719999432563782,1,-10,38,1.350400209,419,38,5
653,TRUE,2.5999999046325684,7,8,0.5264999270439148,0,-10,39,1.6105002164840698,409,39,5
654,FALSE,4.800000190734863,7,5,0.4320000410079956,1,25,4,2.4100000858306885,65,4,5
655,TRUE,2.5999999046325684,7,8,0.5264999270439148,0,-10,40,1.593800426,399,40,5
656,TRUE,2.5999999046325684,7,8,0.5264999270439148,0,-10,41,1.4056999683380127,389,41,5
657,FALSE,2.5999999046325684,7,8,0.5264999270439148,0,64,42,1.4040004014968872,453,42,5
658,TRUE,4.800000190734863,7,5,0.4320000410079956,1,-10,43,1.2873001098632812,443,43,5
659,FALSE,4.800000190734863,7,5,0.4320000410079956,1,25,44,1.018899917602539,468,44,5
660,TRUE,4.800000190734863,7,6,0.5879999995231628,1,-10,45,2.185500144958496,458,45,5
661,TRUE,2.5999999046325684,7,5,0.2339999973773956,0,-10,46,1.416799783706665,448,46,5
662,FALSE,2.5999999046325684,7,6,0.3184999823570251,0,36,47,0.8039999604225159,484,47,5
663,TRUE,2.5999999046325684,7,5,0.2339999973773956,0,-10,48,1.118899941444397,474,48,5
664,FALSE,2.5999999046325684,7,5,0.2339999973773956,0,25,49,0.7346000075340271,499,49,5
665,TRUE,4.800000190734863,7,5,0.4320000410079956,1,-10,5,7.975193977355957,55,5,5
666,FALSE,4.800000190734863,7,7,0.768000066,1,49,50,1.1691001653671265,548,50,5
667,FALSE,2.5999999046325684,7,7,0.4160000085830688,0,49,51,1.1054002046585083,597,51,5
668,TRUE,2.5999999046325684,7,7,0.4160000085830688,0,-10,52,1.2507001161575315,587,52,5
669,TRUE,4.800000190734863,7,7,0.768000066,1,-10,53,1.0575001239776611,577,53,5
670,TRUE,2.5999999046325684,7,7,0.4160000085830688,0,-10,54,1.1487998962402344,567,54,5
671,TRUE,2.5999999046325684,7,7,0.4160000085830688,0,-10,55,1.214599847793579,557,55,5
672,FALSE,4.800000190734863,7,7,0.768000066,1,49,56,1.166599988937378,606,56,5
673,FALSE,4.800000190734863,7,6,0.5879999995231628,1,36,57,2.333700418,642,57,5
674,TRUE,4.800000190734863,7,6,0.5879999995231628,1,-10,58,1.6527003049850464,632,58,5
675,FALSE,2.5999999046325684,7,6,0.3184999823570251,0,36,59,0.8992999196052551,668,59,5
676,TRUE,4.800000190734863,7,8,0.9719999432563782,1,-10,6,3.1197988986968994,45,6,5
677,FALSE,2.5999999046325684,7,6,0.3184999823570251,0,36,60,0.8860999345779419,704,60,5
678,FALSE,4.800000190734863,7,6,0.5879999995231628,1,36,61,0.9739999175071716,740,61,5
679,FALSE,2.5999999046325684,7,8,0.5264999270439148,0,64,62,1.3551998138427734,804,62,5
680,TRUE,4.800000190734863,7,5,0.4320000410079956,1,-10,63,1.106700063,794,63,5
681,FALSE,2.5999999046325684,7,5,0.2339999973773956,0,25,64,0.7722000479698181,819,64,5
682,FALSE,2.5999999046325684,7,7,0.4160000085830688,0,49,65,1.0035001039505005,868,65,5
683,TRUE,2.5999999046325684,7,5,0.2339999973773956,0,-10,66,0.820400059,858,66,5
684,TRUE,2.5999999046325684,7,7,0.4160000085830688,0,-10,67,1.3548003435134888,848,67,5
685,FALSE,4.800000190734863,7,7,0.768000066,1,49,68,1.1176999807357788,897,68,5
686,TRUE,2.5999999046325684,7,9,0.6499999761581421,0,-10,69,2.088200092315674,887,69,5
687,FALSE,2.5999999046325684,7,9,0.6499999761581421,0,81,7,2.0823001861572266,126,7,5
688,TRUE,4.800000190734863,7,9,1.2000000476837158,1,-10,70,2.3903005123138428,877,70,5
689,TRUE,4.800000190734863,7,9,1.2000000476837158,1,-10,71,1.6009000539779663,867,71,5
690,TRUE,2.5999999046325684,7,9,0.6499999761581421,0,-10,72,1.5186998844146729,857,72,5
691,FALSE,2.5999999046325684,7,9,0.6499999761581421,0,81,73,1.6577000617980957,938,73,5
692,TRUE,4.800000190734863,7,9,1.2000000476837158,1,-10,74,2.103000402450561,928,74,5
693,TRUE,2.5999999046325684,7,9,0.6499999761581421,0,-10,75,1.4760998487472534,918,75,5
694,TRUE,2.5999999046325684,7,9,0.6499999761581421,0,-10,76,1.4692996740341189,908,76,5
695,TRUE,4.800000190734863,7,9,1.2000000476837158,1,-10,77,1.7685998678207395,898,77,5
696,FALSE,2.5999999046325684,7,9,0.6499999761581421,0,81,78,1.7861002683639526,979,78,5
697,FALSE,2.5999999046325684,7,5,0.2339999973773956,0,25,79,0.9893999695777892,1004,79,5
698,FALSE,2.5999999046325684,7,1,0,0,1,8,1.786400318145752,127,8,5
699,FALSE,2.5999999046325684,7,5,0.2339999973773956,0,25,80,0.9845998883247375,1029,80,5
700,FALSE,2.5999999046325684,7,6,0.3184999823570251,0,36,81,1.457499861717224,1065,81,5
701,TRUE,2.5999999046325684,7,6,0.3184999823570251,0,-10,82,1.567699909210205,1055,82,5
702,TRUE,4.800000190734863,7,6,0.5879999995231628,1,-10,83,0.8834000825881958,1045,83,5
703,FALSE,2.5999999046325684,7,2,0,0,4,84,1.256700038909912,1049,84,5
704,FALSE,4.800000190734863,7,3,0.1920000165700912,1,9,85,2.3042001724243164,1058,85,5
705,TRUE,4.800000190734863,7,6,0.5879999995231628,1,-10,86,1.663200021,1048,86,5
706,FALSE,2.5999999046325684,7,7,0.4160000085830688,0,49,87,1.0905001163482666,1097,87,5
707,TRUE,4.800000190734863,7,7,0.768000066,1,-10,88,0.9999001026153564,1087,88,5
708,TRUE,4.800000190734863,7,6,0.5879999995231628,1,-10,89,1.0533000230789185,1077,89,5
709,FALSE,4.800000190734863,7,1,0,1,1,9,0.8243999481201172,128,9,5
710,FALSE,2.5999999046325684,7,6,0.3184999823570251,0,36,90,1.2519999742507937,1113,90,5
711,TRUE,4.800000190734863,7,9,1.2000000476837158,1,-10,91,1.5386003255844116,1103,91,5
712,FALSE,2.5999999046325684,7,9,0.6499999761581421,0,81,92,1.7713005542755127,1184,92,5
713,TRUE,4.800000190734863,7,9,1.2000000476837158,1,-10,93,1.4356999397277832,1174,93,5
714,FALSE,2.5999999046325684,7,9,0.6499999761581421,0,81,94,1.4058996438980105,1255,94,5
715,FALSE,2.5999999046325684,7,7,0.4160000085830688,0,49,95,1.1194000244140625,1304,95,5
716,FALSE,2.5999999046325684,7,8,0.5264999270439148,0,64,96,1.3377997875213623,1368,96,5
717,TRUE,2.5999999046325684,7,5,0.2339999973773956,0,-10,97,1.5709996223449707,1358,97,5
718,TRUE,2.5999999046325684,7,8,0.5264999270439148,0,-10,98,2.207700014,1348,98,5
719,FALSE,4.800000190734863,7,4,0.3000000119209289,1,16,99,2.4380998611450195,1364,99,5
720,FALSE,2.5999999046325684,7,6,0.3184999823570251,0,36,1,7.641005039215088,36,1,12
721,TRUE,4.800000190734863,7,9,1.2000000476837158,1,-10,10,3.519998073577881,112,10,12
722,FALSE,4.800000190734863,7,3,0.1920000165700912,1,9,100,2.4889986515045166,1055,100,12
723,TRUE,2.5999999046325684,7,7,0.4160000085830688,0,-10,101,3.787997961044312,1045,101,12
724,TRUE,4.800000190734863,7,4,0.3000000119209289,1,-10,102,3.268998146057129,1035,102,12
725,TRUE,2.5999999046325684,7,9,0.6499999761581421,0,-10,103,2.3209989070892334,1025,103,12
726,FALSE,4.800000190734863,7,6,0.5879999995231628,1,36,104,1.434999942779541,1061,104,12
727,FALSE,4.800000190734863,7,6,0.5879999995231628,1,36,105,1.4209996461868286,1097,105,12
728,FALSE,2.5999999046325684,7,7,0.4160000085830688,0,49,106,1.9879995584487915,1146,106,12
729,TRUE,4.800000190734863,7,6,0.5879999995231628,1,-10,107,2.234999418258667,1136,107,12
730,TRUE,2.5999999046325684,7,7,0.4160000085830688,0,-10,108,2.389998913,1126,108,12
731,TRUE,4.800000190734863,7,7,0.768000066,1,-10,109,2.0199992656707764,1116,109,12
732,FALSE,4.800000190734863,7,4,0.3000000119209289,1,16,11,1.6829994916915894,128,11,12
733,TRUE,4.800000190734863,7,6,0.5879999995231628,1,-10,110,2.169999361038208,1106,110,12
734,TRUE,2.5999999046325684,7,8,0.5264999270439148,0,-10,111,4.889000893,1096,111,12
735,FALSE,2.5999999046325684,7,9,0.6499999761581421,0,81,112,2.454998731613159,1177,112,12
736,TRUE,4.800000190734863,7,7,0.768000066,1,-10,113,3.316998005,1167,113,12
737,FALSE,2.5999999046325684,7,4,0.1624999940395355,0,16,114,3.1569981575012207,1183,114,12
738,TRUE,4.800000190734863,7,6,0.5879999995231628,1,-10,115,2.4539990425109863,1173,115,12
739,FALSE,2.5999999046325684,7,2,0,0,4,116,4.537999153137207,1177,116,12
740,FALSE,2.5999999046325684,7,6,0.3184999823570251,0,36,117,3.137998342514038,1213,117,12
741,TRUE,4.800000190734863,7,5,0.4320000410079956,1,-10,118,2.070999383926392,1203,118,12
742,FALSE,4.800000190734863,7,4,0.3000000119209289,1,16,119,1.6689996719360352,1219,119,12
743,TRUE,2.5999999046325684,7,9,0.6499999761581421,0,-10,12,2.755998373031616,118,12,12
744,FALSE,4.800000190734863,7,5,0.4320000410079956,1,25,120,2.4029996395111084,1244,120,12
745,TRUE,4.800000190734863,7,9,1.2000000476837158,1,-10,13,2.637998342514038,108,13,12
746,TRUE,2.5999999046325684,7,9,0.6499999761581421,0,-10,14,2.6719987392425537,98,14,12
747,FALSE,4.800000190734863,7,4,0.3000000119209289,1,16,15,1.553999423980713,114,15,12
748,TRUE,4.800000190734863,7,5,0.4320000410079956,1,-10,16,1.9189993143081665,104,16,12
749,FALSE,4.800000190734863,7,6,0.5879999995231628,1,36,17,2.153999090194702,140,17,12
750,TRUE,2.5999999046325684,7,5,0.2339999973773956,0,-10,18,34.80012893676758,130,18,12
751,TRUE,4.800000190734863,7,6,0.5879999995231628,1,-10,19,4.453998089,120,19,12
752,TRUE,2.5999999046325684,7,8,0.5264999270439148,0,-10,2,3.905997753143311,26,2,12
753,FALSE,4.800000190734863,7,1,0,1,1,20,1.2540000677108765,121,20,12
754,FALSE,2.5999999046325684,7,7,0.4160000085830688,0,49,21,2.2529993057250977,170,21,12
755,FALSE,4.800000190734863,7,3,0.1920000165700912,1,9,22,2.0179994106292725,179,22,12
756,FALSE,4.800000190734863,7,3,0.1920000165700912,1,9,23,1.5029994249343872,188,23,12
757,TRUE,2.5999999046325684,7,9,0.6499999761581421,0,-10,24,2.9209985733032227,178,24,12
758,FALSE,2.5999999046325684,7,4,0.1624999940395355,0,16,25,2.1879992485046387,194,25,12
759,FALSE,4.800000190734863,7,3,0.1920000165700912,1,9,26,1.401999831199646,203,26,12
760,FALSE,2.5999999046325684,7,9,0.6499999761581421,0,81,27,2.3869991302490234,284,27,12
761,FALSE,2.5999999046325684,7,7,0.4160000085830688,0,49,28,2.367999554,333,28,12
762,FALSE,4.800000190734863,7,3,0.1920000165700912,1,9,29,2.002999782562256,342,29,12
763,FALSE,2.5999999046325684,7,6,0.3184999823570251,0,36,3,2.536998987197876,62,3,12
764,FALSE,2.5999999046325684,7,7,0.4160000085830688,0,49,30,2.670999050140381,391,30,12
765,FALSE,4.800000190734863,7,5,0.4320000410079956,1,25,31,1.8199992179870603,416,31,12
766,FALSE,2.5999999046325684,7,7,0.4160000085830688,0,49,32,2.469998836517334,465,32,12
767,TRUE,2.5999999046325684,7,8,0.5264999270439148,0,-10,33,2.337999105453491,455,33,12
768,FALSE,4.800000190734863,7,4,0.3000000119209289,1,16,34,1.985999703407288,471,34,12
769,FALSE,4.800000190734863,7,1,0,1,1,35,1.0359998941421509,472,35,12
770,TRUE,2.5999999046325684,7,8,0.5264999270439148,0,-10,36,2.854998588562012,462,36,12
771,TRUE,2.5999999046325684,7,9,0.6499999761581421,0,-10,37,2.5169990062713623,452,37,12
772,TRUE,2.5999999046325684,7,7,0.4160000085830688,0,-10,38,2.0689992904663086,442,38,12
773,FALSE,4.800000190734863,7,4,0.3000000119209289,1,16,39,1.552999735,458,39,12
774,TRUE,2.5999999046325684,7,8,0.5264999270439148,0,-10,4,3.4209980964660645,52,4,12
775,FALSE,4.800000190734863,7,4,0.3000000119209289,1,16,40,1.9219999313354488,474,40,12
776,FALSE,2.5999999046325684,7,8,0.5264999270439148,0,64,41,2.703999280929565,538,41,12
777,TRUE,2.5999999046325684,7,9,0.6499999761581421,0,-10,42,3.569997549057007,528,42,12
778,FALSE,4.800000190734863,7,5,0.4320000410079956,1,25,43,1.4209996461868286,553,43,12
779,TRUE,4.800000190734863,7,5,0.4320000410079956,1,-10,44,2.0029993057250977,543,44,12
780,TRUE,4.800000190734863,7,4,0.3000000119209289,1,-10,45,1.5019997358322144,533,45,12
781,TRUE,2.5999999046325684,7,9,0.6499999761581421,0,-10,46,2.755998373031616,523,46,12
782,TRUE,2.5999999046325684,7,8,0.5264999270439148,0,-10,47,2.971998215,513,47,12
783,FALSE,2.5999999046325684,7,4,0.1624999940395355,0,16,48,1.6859997510910034,529,48,12
784,FALSE,4.800000190734863,7,4,0.3000000119209289,1,16,49,1.8039995431900024,545,49,12
785,TRUE,4.800000190734863,7,9,1.2000000476837158,1,-10,5,3.3359978199005127,42,5,12
786,TRUE,4.800000190734863,7,4,0.3000000119209289,1,-10,50,1.821999669075012,535,50,12
787,TRUE,2.5999999046325684,7,9,0.6499999761581421,0,-10,51,2.969998598098755,525,51,12
788,TRUE,4.800000190734863,7,6,0.5879999995231628,1,-10,52,2.2549991607666016,515,52,12
789,TRUE,4.800000190734863,7,5,0.4320000410079956,1,-10,53,1.9889992475509644,505,53,12
790,FALSE,4.800000190734863,7,4,0.3000000119209289,1,16,54,2.6899986267089844,521,54,12
791,FALSE,4.800000190734863,7,4,0.3000000119209289,1,16,55,1.4539995193481443,537,55,12
792,FALSE,2.5999999046325684,7,7,0.4160000085830688,0,49,56,1.987999677658081,586,56,12
793,TRUE,2.5999999046325684,7,9,0.6499999761581421,0,-10,57,2.3699986934661865,576,57,12
794,TRUE,4.800000190734863,7,5,0.4320000410079956,1,-10,58,1.4189997911453247,566,58,12
795,FALSE,4.800000190734863,7,5,0.4320000410079956,1,25,59,4.836000442504883,591,59,12
796,TRUE,4.800000190734863,7,8,0.9719999432563782,1,-10,6,5.006000042,32,6,12
797,FALSE,2.5999999046325684,7,7,0.4160000085830688,0,49,60,2.103999137878418,640,60,12
798,TRUE,4.800000190734863,7,5,0.4320000410079956,1,-10,61,1.9209996461868288,630,61,12
799,TRUE,4.800000190734863,7,6,0.5879999995231628,1,-10,62,3.754997491836548,620,62,12
800,TRUE,2.5999999046325684,7,9,0.6499999761581421,0,-10,63,2.768998622894287,610,63,12
801,FALSE,2.5999999046325684,7,7,0.4160000085830688,0,49,64,2.055999517440796,659,64,12
802,TRUE,2.5999999046325684,7,8,0.5264999270439148,0,-10,65,2.021999359,649,65,12
803,FALSE,2.5999999046325684,7,7,0.4160000085830688,0,49,66,1.887999415397644,698,66,12
804,TRUE,4.800000190734863,7,4,0.3000000119209289,1,-10,67,2.920998334884644,688,67,12
805,FALSE,4.800000190734863,7,4,0.3000000119209289,1,16,68,2.522998571395874,704,68,12
806,FALSE,2.5999999046325684,7,7,0.4160000085830688,0,49,69,2.402998924255371,753,69,12
807,FALSE,2.5999999046325684,7,6,0.3184999823570251,0,36,7,2.955998659133911,68,7,12
808,FALSE,4.800000190734863,7,5,0.4320000410079956,1,25,70,3.104998588562012,778,70,12
809,FALSE,4.800000190734863,7,5,0.4320000410079956,1,25,71,1.5189999341964722,803,71,12
810,TRUE,2.5999999046325684,7,7,0.4160000085830688,0,-10,72,2.1209990978240967,793,72,12
811,TRUE,4.800000190734863,7,6,0.5879999995231628,1,-10,73,1.7549996376037598,783,73,12
812,TRUE,2.5999999046325684,7,8,0.5264999270439148,0,-10,74,3.003998279571533,773,74,12
813,TRUE,4.800000190734863,7,7,0.768000066,1,-10,75,2.533998727798462,763,75,12
814,FALSE,2.5999999046325684,7,9,0.6499999761581421,0,81,76,6.538004398345947,844,76,12
815,TRUE,4.800000190734863,7,4,0.3000000119209289,1,-10,77,2.170999050140381,834,77,12
816,TRUE,4.800000190734863,7,4,0.3000000119209289,1,-10,78,4.155998229980469,824,78,12
817,TRUE,4.800000190734863,7,4,0.3000000119209289,1,-10,79,2.837998390197754,814,79,12
818,FALSE,2.5999999046325684,7,8,0.5264999270439148,0,64,8,4.285998344421387,132,8,12
819,TRUE,4.800000190734863,7,5,0.4320000410079956,1,-10,80,1.571999430656433,804,80,12
820,TRUE,2.5999999046325684,7,9,0.6499999761581421,0,-10,81,2.303999185562134,794,81,12
821,FALSE,2.5999999046325684,7,9,0.6499999761581421,0,81,82,2.202998876571656,875,82,12
822,TRUE,2.5999999046325684,7,8,0.5264999270439148,0,-10,83,2.121999263763428,865,83,12
823,TRUE,2.5999999046325684,7,9,0.6499999761581421,0,-10,84,2.9879987239837646,855,84,12
824,TRUE,4.800000190734863,7,5,0.4320000410079956,1,-10,85,3.820997714996338,845,85,12
825,TRUE,2.5999999046325684,7,9,0.6499999761581421,0,-10,86,4.251997947692871,835,86,12
826,FALSE,4.800000190734863,7,5,0.4320000410079956,1,25,87,2.005999565124512,860,87,12
827,TRUE,2.5999999046325684,7,8,0.5264999270439148,0,-10,88,8.307005882263184,850,88,12
828,TRUE,2.5999999046325684,7,9,0.6499999761581421,0,-10,89,2.053999185562134,840,89,12
829,TRUE,2.5999999046325684,7,6,0.3184999823570251,0,-10,9,2.370999336242676,122,9,12
830,TRUE,4.800000190734863,7,6,0.5879999995231628,1,-10,90,3.7389981746673584,830,90,12
831,FALSE,2.5999999046325684,7,7,0.4160000085830688,0,49,91,2.1519994735717773,879,91,12
832,FALSE,2.5999999046325684,7,5,0.2339999973773956,0,25,92,1.704999566078186,904,92,12
833,TRUE,2.5999999046325684,7,6,0.3184999823570251,0,-10,93,2.0349996089935303,894,93,12
834,FALSE,2.5999999046325684,7,5,0.2339999973773956,0,25,94,4.305996894836426,919,94,12
835,FALSE,2.5999999046325684,7,6,0.3184999823570251,0,36,95,4.0889973640441895,955,95,12
836,FALSE,2.5999999046325684,7,8,0.5264999270439148,0,64,96,2.352999687194824,1019,96,12
837,TRUE,4.800000190734863,7,7,0.768000066,1,-10,97,2.1399996280670166,1009,97,12
838,FALSE,4.800000190734863,7,1,0,1,1,98,0.6010000109672546,1010,98,12
839,FALSE,4.800000190734863,7,6,0.5879999995231628,1,36,99,2.2029991149902344,1046,99,12
840,TRUE,2.5999999046325684,7,4,0.1624999940395355,0,-10,1,2.303401231765747,-10,1,15
841,FALSE,4.800000190734863,7,2,0,1,4,10,1.1367008686065674,19,10,15
842,TRUE,4.800000190734863,7,5,0.4320000410079956,1,-10,100,2.4697015285491943,978,100,15
843,TRUE,4.800000190734863,7,3,0.1920000165700912,1,-10,101,1.5699011087417605,968,101,15
844,FALSE,4.800000190734863,7,2,0,1,4,102,1.2865006923675537,972,102,15
845,FALSE,4.800000190734863,7,2,0,1,4,103,1.036800503730774,976,103,15
846,FALSE,4.800000190734863,7,2,0,1,4,104,1.003400444984436,980,104,15
847,FALSE,2.5999999046325684,7,2,0,0,4,105,1.1868007183074951,984,105,15
848,FALSE,4.800000190734863,7,2,0,1,4,106,1.5032011270523071,988,106,15
849,FALSE,4.800000190734863,7,2,0,1,4,107,1.853501558303833,992,107,15
850,FALSE,4.800000190734863,7,2,0,1,4,108,1.086700439453125,996,108,15
851,FALSE,4.800000190734863,7,2,0,1,4,109,1.7368015050888062,1000,109,15
852,FALSE,2.5999999046325684,7,2,0,0,4,11,1.603501319885254,23,11,15
853,FALSE,4.800000190734863,7,2,0,1,4,110,1.0701004266738892,1004,110,15
854,FALSE,4.800000190734863,7,2,0,1,4,111,1.153100609779358,1008,111,15
855,TRUE,2.5999999046325684,7,3,0.1040000021457672,0,-10,112,2.2032012939453125,998,112,15
856,FALSE,2.5999999046325684,7,2,0,0,4,113,1.503400802612305,1002,113,15
857,FALSE,2.5999999046325684,7,2,0,0,4,114,1.0199003219604492,1006,114,15
858,FALSE,2.5999999046325684,7,2,0,0,4,115,1.1536006927490234,1010,115,15
859,FALSE,4.800000190734863,7,2,0,1,4,116,1.0701007843017578,1014,116,15
860,FALSE,4.800000190734863,7,2,0,1,4,117,0.9700002074241638,1018,117,15
861,FALSE,4.800000190734863,7,2,0,1,4,118,1.0366007089614868,1022,118,15
862,FALSE,4.800000190734863,7,2,0,1,4,119,1.0367006063461304,1026,119,15
863,FALSE,4.800000190734863,7,3,0.1920000165700912,1,9,12,2.036501646,32,12,15
864,FALSE,2.5999999046325684,7,4,0.1624999940395355,0,16,120,2.2866015434265137,1042,120,15
865,FALSE,4.800000190734863,7,2,0,1,4,13,1.1700005531311035,36,13,15
866,FALSE,2.5999999046325684,7,3,0.1040000021457672,0,9,14,2.0366017818450928,45,14,15
867,FALSE,2.5999999046325684,7,3,0.1040000021457672,0,9,15,4.069697856903076,54,15,15
868,FALSE,2.5999999046325684,7,3,0.1040000021457672,0,9,16,2.2032017707824707,63,16,15
869,FALSE,2.5999999046325684,7,4,0.1624999940395355,0,16,17,4.319895267486572,79,17,15
870,FALSE,4.800000190734863,7,2,0,1,4,18,4.419798374176025,83,18,15
871,FALSE,4.800000190734863,7,3,0.1920000165700912,1,9,19,2.753600835800171,92,19,15
872,FALSE,4.800000190734863,7,1,0,1,1,2,1.0238006114959717,-9,2,15
873,TRUE,4.800000190734863,7,3,0.1920000165700912,1,-10,20,1.6364015340805054,82,20,15
874,FALSE,4.800000190734863,7,2,0,1,4,21,1.869901657104492,86,21,15
875,FALSE,4.800000190734863,7,2,0,1,4,22,3.236699104309082,90,22,15
876,FALSE,2.5999999046325684,7,3,0.1040000021457672,0,9,23,2.9365992546081543,99,23,15
877,FALSE,4.800000190734863,7,2,0,1,4,24,1.9366017580032349,103,24,15
878,FALSE,2.5999999046325684,7,2,0,0,4,25,2.3367016315460205,107,25,15
879,FALSE,2.5999999046325684,7,2,0,0,4,26,2.252901554107666,111,26,15
880,FALSE,2.5999999046325684,7,3,0.1040000021457672,0,9,27,2.553400039672852,120,27,15
881,FALSE,4.800000190734863,7,2,0,1,4,28,1.903401494026184,124,28,15
882,FALSE,2.5999999046325684,7,3,0.1040000021457672,0,9,29,3.6199989318847656,133,29,15
883,FALSE,2.5999999046325684,7,2,0,0,4,3,0.7868003845214844,-5,3,15
884,FALSE,4.800000190734863,7,2,0,1,4,30,1.886601805686951,137,30,15
885,FALSE,4.800000190734863,7,2,0,1,4,31,2.086301803588867,141,31,15
886,FALSE,4.800000190734863,7,2,0,1,4,32,2.436800479888916,145,32,15
887,FALSE,4.800000190734863,7,2,0,1,4,33,3.5036988258361816,149,33,15
888,FALSE,2.5999999046325684,7,3,0.1040000021457672,0,9,34,2.603500843048096,158,34,15
889,FALSE,2.5999999046325684,7,4,0.1624999940395355,0,16,35,3.003500461578369,174,35,15
890,FALSE,4.800000190734863,7,3,0.1920000165700912,1,9,36,3.986997365951538,183,36,15
891,FALSE,4.800000190734863,7,3,0.1920000165700912,1,9,37,1.9534015655517576,192,37,15
892,TRUE,4.800000190734863,7,3,0.1920000165700912,1,-10,38,2.119901180267334,182,38,15
893,FALSE,2.5999999046325684,7,4,0.1624999940395355,0,16,39,2.603100538253784,198,39,15
894,FALSE,4.800000190734863,7,3,0.1920000165700912,1,9,4,3.903597831726074,4,4,15
895,FALSE,2.5999999046325684,7,4,0.1624999940395355,0,16,40,2.603400707244873,214,40,15
896,FALSE,2.5999999046325684,7,4,0.1624999940395355,0,16,41,1.853301286697388,230,41,15
897,FALSE,2.5999999046325684,7,4,0.1624999940395355,0,16,42,3.0201995372772217,246,42,15
898,FALSE,4.800000190734863,7,2,0,1,4,43,1.8033015727996824,250,43,15
899,FALSE,4.800000190734863,7,2,0,1,4,44,2.1032016277313232,254,44,15
900,FALSE,4.800000190734863,7,3,0.1920000165700912,1,9,45,1.8867014646530151,263,45,15
901,FALSE,2.5999999046325684,7,2,0,0,4,46,4.119896889,267,46,15
902,FALSE,2.5999999046325684,7,2,0,0,4,47,2.503201484680176,271,47,15
903,FALSE,2.5999999046325684,7,2,0,0,4,48,1.4365010261535645,275,48,15
904,TRUE,2.5999999046325684,7,4,0.1624999940395355,0,-10,49,3.886598110198975,265,49,15
905,FALSE,4.800000190734863,7,2,0,1,4,5,1.9696018695831297,8,5,15
906,FALSE,4.800000190734863,7,2,0,1,4,50,2.303501129,269,50,15
907,FALSE,2.5999999046325684,7,3,0.1040000021457672,0,9,51,1.9869017601013184,278,51,15
908,FALSE,2.5999999046325684,7,3,0.1040000021457672,0,9,52,1.8368014097213743,287,52,15
909,FALSE,4.800000190734863,7,3,0.1920000165700912,1,9,53,1.670301318,296,53,15
910,TRUE,2.5999999046325684,7,3,0.1040000021457672,0,-10,54,2.1032018661499023,286,54,15
911,FALSE,2.5999999046325684,7,3,0.1040000021457672,0,9,55,2.4198014736175537,295,55,15
912,FALSE,4.800000190734863,7,3,0.1920000165700912,1,9,56,1.5868011713027954,304,56,15
913,FALSE,4.800000190734863,7,2,0,1,4,57,2.503300905227661,308,57,15
914,FALSE,4.800000190734863,7,3,0.1920000165700912,1,9,58,2.4031014442443848,317,58,15
915,FALSE,2.5999999046325684,7,2,0,0,4,59,1.786501646,321,59,15
916,TRUE,4.800000190734863,7,3,0.1920000165700912,1,-10,6,1.836601734161377,-2,6,15
917,FALSE,2.5999999046325684,7,2,0,0,4,60,2.486400842666626,325,60,15
918,FALSE,4.800000190734863,7,3,0.1920000165700912,1,9,61,1.936601638793945,334,61,15
919,FALSE,2.5999999046325684,7,4,0.1624999940395355,0,16,62,3.070100307,350,62,15
920,FALSE,4.800000190734863,7,3,0.1920000165700912,1,9,63,2.486501216888428,359,63,15
921,FALSE,2.5999999046325684,7,4,0.1624999940395355,0,16,64,2.1200013160705566,375,64,15
922,FALSE,2.5999999046325684,7,4,0.1624999940395355,0,16,65,1.853501319885254,391,65,15
923,FALSE,2.5999999046325684,7,3,0.1040000021457672,0,9,66,1.403401017189026,400,66,15
924,FALSE,2.5999999046325684,7,4,0.1624999940395355,0,16,67,1.5037009716033936,416,67,15
925,FALSE,4.800000190734863,7,3,0.1920000165700912,1,9,68,2.0367016792297363,425,68,15
926,FALSE,2.5999999046325684,7,4,0.1624999940395355,0,16,69,2.003201723098755,441,69,15
927,FALSE,2.5999999046325684,7,2,0,0,4,7,1.920201539993286,2,7,15
928,FALSE,4.800000190734863,7,3,0.1920000165700912,1,9,70,2.237001180648804,450,70,15
929,FALSE,4.800000190734863,7,2,0,1,4,71,2.853600025177002,454,71,15
930,FALSE,2.5999999046325684,7,5,0.2339999973773956,0,25,72,2.336801528930664,479,72,15
931,FALSE,2.5999999046325684,7,5,0.2339999973773956,0,25,73,2.2201015949249268,504,73,15
932,FALSE,4.800000190734863,7,3,0.1920000165700912,1,9,74,1.7368017435073853,513,74,15
933,FALSE,2.5999999046325684,7,5,0.2339999973773956,0,25,75,1.836701751,538,75,15
934,FALSE,2.5999999046325684,7,7,0.4160000085830688,0,49,76,3.1366000175476074,587,76,15
935,FALSE,4.800000190734863,7,4,0.3000000119209289,1,16,77,1.986601710319519,603,77,15
936,FALSE,2.5999999046325684,7,7,0.4160000085830688,0,49,78,2.5201008319854736,652,78,15
937,FALSE,2.5999999046325684,7,7,0.4160000085830688,0,49,79,2.220001220703125,701,79,15
938,FALSE,2.5999999046325684,7,3,0.1040000021457672,0,9,8,1.6366013288497925,11,8,15
939,TRUE,2.5999999046325684,7,7,0.4160000085830688,0,-10,80,2.570400714874268,691,80,15
940,FALSE,2.5999999046325684,7,6,0.3184999823570251,0,36,81,2.520000696182251,727,81,15
941,FALSE,2.5999999046325684,7,6,0.3184999823570251,0,36,82,2.220300674438477,763,82,15
942,TRUE,4.800000190734863,7,5,0.4320000410079956,1,-10,83,8.270079612731934,753,83,15
943,TRUE,2.5999999046325684,7,5,0.2339999973773956,0,-10,84,2.1032018661499023,743,84,15
944,FALSE,4.800000190734863,7,7,0.768000066,1,49,85,2.1367013454437256,792,85,15
945,TRUE,4.800000190734863,7,8,0.9719999432563782,1,-10,86,3.236799955368042,782,86,15
946,TRUE,2.5999999046325684,7,9,0.6499999761581421,0,-10,87,2.753300428390503,772,87,15
947,FALSE,4.800000190734863,7,6,0.5879999995231628,1,36,88,3.420100688934326,808,88,15
948,TRUE,4.800000190734863,7,6,0.5879999995231628,1,-10,89,2.1871018409729004,798,89,15
949,FALSE,4.800000190734863,7,2,0,1,4,9,2.053201913833618,15,9,15
950,FALSE,2.5999999046325684,7,5,0.2339999973773956,0,25,90,2.1038014888763428,823,90,15
951,FALSE,4.800000190734863,7,5,0.4320000410079956,1,25,91,1.5199010372161863,848,91,15
952,FALSE,2.5999999046325684,7,5,0.2339999973773956,0,25,92,2.419900894165039,873,92,15
953,FALSE,4.800000190734863,7,4,0.3000000119209289,1,16,93,1.7697014808654783,889,93,15
954,FALSE,2.5999999046325684,7,3,0.1040000021457672,0,9,94,1.5538007020950315,898,94,15
955,FALSE,2.5999999046325684,7,5,0.2339999973773956,0,25,95,2.353201389312744,923,95,15
956,FALSE,2.5999999046325684,7,5,0.2339999973773956,0,25,96,1.6534013748168943,948,96,15
957,FALSE,2.5999999046325684,7,5,0.2339999973773956,0,25,97,2.036701440811157,973,97,15
958,FALSE,2.5999999046325684,7,5,0.2339999973773956,0,25,98,2.4198007583618164,998,98,15
959,TRUE,4.800000190734863,7,5,0.4320000410079956,1,-10,99,1.736801266670227,988,99,15
960,TRUE,2.5999999046325684,7,9,0.6499999761581421,0,-10,1,17.871068954467773,-10,1,8
961,TRUE,4.800000190734863,7,5,0.4320000410079956,1,-10,10,2.419998884,-16,10,8
962,FALSE,4.800000190734863,7,6,0.5879999995231628,1,36,100,2.101999282836914,1198,100,8
963,TRUE,4.800000190734863,7,6,0.5879999995231628,1,-10,101,1.6529996395111084,1188,101,8
964,FALSE,4.800000190734863,7,6,0.5879999995231628,1,36,102,2.8529982566833496,1224,102,8
965,TRUE,4.800000190734863,7,6,0.5879999995231628,1,-10,103,2.1189992427825928,1214,103,8
966,TRUE,4.800000190734863,7,5,0.4320000410079956,1,-10,104,1.9709991216659544,1204,104,8
967,TRUE,2.5999999046325684,7,7,0.4160000085830688,0,-10,105,2.5709986686706543,1194,105,8
968,FALSE,4.800000190734863,7,6,0.5879999995231628,1,36,106,1.7039995193481443,1230,106,8
969,TRUE,4.800000190734863,7,6,0.5879999995231628,1,-10,107,2.285998821258545,1220,107,8
970,TRUE,4.800000190734863,7,6,0.5879999995231628,1,-10,108,1.670999289,1210,108,8
971,TRUE,4.800000190734863,7,7,0.768000066,1,-10,109,1.93799901,1200,109,8
972,FALSE,2.5999999046325684,7,5,0.2339999973773956,0,25,11,5.169000625610352,9,11,8
973,TRUE,4.800000190734863,7,6,0.5879999995231628,1,-10,110,1.587999463,1190,110,8
974,FALSE,4.800000190734863,7,6,0.5879999995231628,1,36,111,2.6209986209869385,1226,111,8
975,TRUE,2.5999999046325684,7,8,0.5264999270439148,0,-10,112,2.4539988040924072,1216,112,8
976,TRUE,2.5999999046325684,7,7,0.4160000085830688,0,-10,113,3.2879977226257324,1206,113,8
977,FALSE,2.5999999046325684,7,6,0.3184999823570251,0,36,114,2.153999090194702,1242,114,8
978,FALSE,2.5999999046325684,7,7,0.4160000085830688,0,49,115,3.0019984245300293,1291,115,8
979,TRUE,4.800000190734863,7,6,0.5879999995231628,1,-10,116,1.8019993305206297,1281,116,8
980,TRUE,4.800000190734863,7,9,1.2000000476837158,1,-10,117,2.153998851776123,1271,117,8
981,TRUE,4.800000190734863,7,9,1.2000000476837158,1,-10,118,2.968998432159424,1261,118,8
982,TRUE,4.800000190734863,7,6,0.5879999995231628,1,-10,119,2.787998676300049,1251,119,8
983,TRUE,4.800000190734863,7,5,0.4320000410079956,1,-10,12,3.8899972438812256,-1,12,8
984,FALSE,2.5999999046325684,7,9,0.6499999761581421,0,81,120,1.9679992198944087,1332,120,8
985,FALSE,4.800000190734863,7,5,0.4320000410079956,1,25,13,2.703998565673828,24,13,8
986,FALSE,2.5999999046325684,7,5,0.2339999973773956,0,25,14,2.270998954772949,49,14,8
987,FALSE,2.5999999046325684,7,5,0.2339999973773956,0,25,15,2.2039990425109863,74,15,8
988,FALSE,2.5999999046325684,7,6,0.3184999823570251,0,36,16,2.0729990005493164,110,16,8
989,TRUE,2.5999999046325684,7,7,0.4160000085830688,0,-10,17,2.6849989891052246,100,17,8
990,FALSE,4.800000190734863,7,5,0.4320000410079956,1,25,18,3.5199978351593018,125,18,8
991,TRUE,4.800000190734863,7,6,0.5879999995231628,1,-10,19,1.853999376296997,115,19,8
992,TRUE,4.800000190734863,7,9,1.2000000476837158,1,-10,2,4.079997539520264,-20,2,8
993,TRUE,4.800000190734863,7,6,0.5879999995231628,1,-10,20,1.6209995746612549,105,20,8
994,TRUE,4.800000190734863,7,6,0.5879999995231628,1,-10,21,2.652998447418213,95,21,8
995,FALSE,4.800000190734863,7,6,0.5879999995231628,1,36,22,3.8349974155426025,131,22,8
996,TRUE,2.5999999046325684,7,6,0.3184999823570251,0,-10,23,20.90414428710937,121,23,8
997,FALSE,4.800000190734863,7,5,0.4320000410079956,1,25,24,3.617997884750366,146,24,8
998,TRUE,2.5999999046325684,7,6,0.3184999823570251,0,-10,25,1.968999266624451,136,25,8
999,TRUE,2.5999999046325684,7,6,0.3184999823570251,0,-10,26,2.2009987831115723,126,26,8
1000,TRUE,2.5999999046325684,7,7,0.4160000085830688,0,-10,27,2.6719985008239746,116,27,8
1001,TRUE,4.800000190734863,7,7,0.768000066,1,-10,28,2.051999092102051,106,28,8
1002,FALSE,2.5999999046325684,7,6,0.3184999823570251,0,36,29,2.584998846054077,142,29,8
1003,TRUE,2.5999999046325684,7,5,0.2339999973773956,0,-10,3,14.754034042358398,-30,3,8
1004,FALSE,4.800000190734863,7,5,0.4320000410079956,1,25,30,1.752999186515808,167,30,8
1005,TRUE,4.800000190734863,7,6,0.5879999995231628,1,-10,31,3.0559983253479004,157,31,8
1006,FALSE,4.800000190734863,7,5,0.4320000410079956,1,25,32,2.5619988441467285,182,32,8
1007,FALSE,4.800000190734863,7,5,0.4320000410079956,1,25,33,5.939002990722656,207,33,8
1008,FALSE,2.5999999046325684,7,6,0.3184999823570251,0,36,34,12.205016136169434,243,34,8
1009,FALSE,2.5999999046325684,7,5,0.2339999973773956,0,25,35,6.085003852844238,268,35,8
1010,TRUE,4.800000190734863,7,5,0.4320000410079956,1,-10,36,4.269998073577881,258,36,8
1011,FALSE,4.800000190734863,7,6,0.5879999995231628,1,36,37,3.103998661,294,37,8
1012,TRUE,4.800000190734863,7,6,0.5879999995231628,1,-10,38,3.920997142791748,284,38,8
1013,FALSE,2.5999999046325684,7,6,0.3184999823570251,0,36,39,2.117999315261841,320,39,8
1014,TRUE,4.800000190734863,7,5,0.4320000410079956,1,-10,4,2.268998861312866,-40,4,8
1015,TRUE,2.5999999046325684,7,6,0.3184999823570251,0,-10,40,2.5029988288879395,310,40,8
1016,TRUE,2.5999999046325684,7,9,0.6499999761581421,0,-10,41,5.219001293182373,300,41,8
1017,TRUE,2.5999999046325684,7,9,0.6499999761581421,0,-10,42,2.486999273300171,290,42,8
1018,FALSE,4.800000190734863,7,5,0.4320000410079956,1,25,43,2.837998390197754,315,43,8
1019,TRUE,4.800000190734863,7,6,0.5879999995231628,1,-10,44,2.168999195098877,305,44,8
1020,FALSE,4.800000190734863,7,6,0.5879999995231628,1,36,45,2.2679991722106934,341,45,8
1021,TRUE,2.5999999046325684,7,9,0.6499999761581421,0,-10,46,2.785998821258545,331,46,8
1022,TRUE,2.5999999046325684,7,9,0.6499999761581421,0,-10,47,2.270998954772949,321,47,8
1023,FALSE,2.5999999046325684,7,9,0.6499999761581421,0,81,48,3.320997953414917,402,48,8
1024,TRUE,2.5999999046325684,7,9,0.6499999761581421,0,-10,49,3.803997517,392,49,8
1025,FALSE,4.800000190734863,7,1,0,1,1,5,1.5029995441436768,-39,5,8
1026,TRUE,4.800000190734863,7,6,0.5879999995231628,1,-10,50,2.2029991149902344,382,50,8
1027,TRUE,2.5999999046325684,7,9,0.6499999761581421,0,-10,51,2.268998622894287,372,51,8
1028,TRUE,2.5999999046325684,7,9,0.6499999761581421,0,-10,52,3.320998191833496,362,52,8
1029,TRUE,4.800000190734863,7,6,0.5879999995231628,1,-10,53,1.9879992008209229,352,53,8
1030,TRUE,2.5999999046325684,7,9,0.6499999761581421,0,-10,54,3.4219977855682373,342,54,8
1031,TRUE,2.5999999046325684,7,9,0.6499999761581421,0,-10,55,3.1039984226226807,332,55,8
1032,TRUE,4.800000190734863,7,6,0.5879999995231628,1,-10,56,2.3689987659454346,322,56,8
1033,FALSE,4.800000190734863,7,6,0.5879999995231628,1,36,57,2.168999195098877,358,57,8
1034,TRUE,4.800000190734863,7,6,0.5879999995231628,1,-10,58,4.902999877929688,348,58,8
1035,FALSE,2.5999999046325684,7,9,0.6499999761581421,0,81,59,3.703997611999512,429,59,8
1036,FALSE,4.800000190734863,7,2,0,1,4,6,2.717998504638672,-35,6,8
1037,FALSE,2.5999999046325684,7,6,0.3184999823570251,0,36,60,6.2020039558410645,465,60,8
1038,FALSE,4.800000190734863,7,5,0.4320000410079956,1,25,61,3.2209980487823486,490,61,8
1039,TRUE,2.5999999046325684,7,6,0.3184999823570251,0,-10,62,2.102999210357666,480,62,8
1040,TRUE,4.800000190734863,7,5,0.4320000410079956,1,-10,63,2.6019985675811768,470,63,8
1041,TRUE,2.5999999046325684,7,9,0.6499999761581421,0,-10,64,3.569997549057007,460,64,8
1042,TRUE,2.5999999046325684,7,9,0.6499999761581421,0,-10,65,3.4189977645874023,450,65,8
1043,TRUE,2.5999999046325684,7,9,0.6499999761581421,0,-10,66,2.5709986686706543,440,66,8
1044,TRUE,2.5999999046325684,7,9,0.6499999761581421,0,-10,67,3.736997842788696,430,67,8
1045,FALSE,4.800000190734863,7,5,0.4320000410079956,1,25,68,3.1869983673095703,455,68,8
1046,TRUE,2.5999999046325684,7,9,0.6499999761581421,0,-10,69,3.753997802734375,445,69,8
1047,FALSE,2.5999999046325684,7,2,0,0,4,7,3.884997606277466,-31,7,8
1048,FALSE,4.800000190734863,7,6,0.5879999995231628,1,36,70,2.9349985122680664,481,70,8
1049,TRUE,4.800000190734863,7,5,0.4320000410079956,1,-10,71,2.4539988040924072,471,71,8
1050,FALSE,2.5999999046325684,7,9,0.6499999761581421,0,81,72,3.5869977474212646,552,72,8
1051,FALSE,2.5999999046325684,7,6,0.3184999823570251,0,36,73,3.0509982109069824,588,73,8
1052,FALSE,4.800000190734863,7,5,0.4320000410079956,1,25,74,2.7539985179901123,613,74,8
1053,FALSE,2.5999999046325684,7,7,0.4160000085830688,0,49,75,3.284998178482056,662,75,8
1054,FALSE,2.5999999046325684,7,8,0.5264999270439148,0,64,76,2.470998764038086,726,76,8
1055,FALSE,4.800000190734863,7,6,0.5879999995231628,1,36,77,2.2359988689422607,762,77,8
1056,FALSE,2.5999999046325684,7,8,0.5264999270439148,0,64,78,2.9219985008239746,826,78,8
1057,TRUE,2.5999999046325684,7,9,0.6499999761581421,0,-10,79,2.1359992027282715,816,79,8
1058,FALSE,2.5999999046325684,7,3,0.1040000021457672,0,9,8,2.720998525619507,-22,8,8
1059,TRUE,2.5999999046325684,7,8,0.5264999270439148,0,-10,80,2.4209985733032227,806,80,8
1060,FALSE,2.5999999046325684,7,7,0.4160000085830688,0,49,81,2.5039985179901123,855,81,8
1061,FALSE,2.5999999046325684,7,7,0.4160000085830688,0,49,82,2.337999105453491,904,82,8
1062,TRUE,4.800000190734863,7,6,0.5879999995231628,1,-10,83,2.834998607635498,894,83,8
1063,TRUE,2.5999999046325684,7,8,0.5264999270439148,0,-10,84,2.1349992752075195,884,84,8
1064,TRUE,4.800000190734863,7,6,0.5879999995231628,1,-10,85,2.034999132156372,874,85,8
1065,FALSE,4.800000190734863,7,5,0.4320000410079956,1,25,86,2.3699989318847656,899,86,8
1066,TRUE,2.5999999046325684,7,9,0.6499999761581421,0,-10,87,2.167999505996704,889,87,8
1067,FALSE,4.800000190734863,7,6,0.5879999995231628,1,36,88,2.684998750686645,925,88,8
1068,FALSE,4.800000190734863,7,6,0.5879999995231628,1,36,89,1.9539990425109863,961,89,8
1069,FALSE,4.800000190734863,7,4,0.3000000119209289,1,16,9,3.4209980964660645,-6,9,8
1070,TRUE,2.5999999046325684,7,7,0.4160000085830688,0,-10,90,4.785999774932861,951,90,8
1071,TRUE,4.800000190734863,7,6,0.5879999995231628,1,-10,91,2.2679989337921143,941,91,8
1072,FALSE,2.5999999046325684,7,7,0.4160000085830688,0,49,92,3.3199985027313232,990,92,8
1073,TRUE,4.800000190734863,7,5,0.4320000410079956,1,-10,93,3.3039982318878174,980,93,8
1074,FALSE,2.5999999046325684,7,6,0.3184999823570251,0,36,94,2.2039990425109863,1016,94,8
1075,TRUE,2.5999999046325684,7,8,0.5264999270439148,0,-10,95,2.5369985103607178,1006,95,8
1076,TRUE,2.5999999046325684,7,8,0.5264999270439148,0,-10,96,2.052999258041382,996,96,8
1077,FALSE,2.5999999046325684,7,9,0.6499999761581421,0,81,97,2.220999002456665,1077,97,8
1078,FALSE,2.5999999046325684,7,7,0.4160000085830688,0,49,98,2.284999370574951,1126,98,8
1079,FALSE,4.800000190734863,7,6,0.5879999995231628,1,36,99,1.803999304771424,1162,99,8
1080,TRUE,2.5999999046325684,7,9,0.6499999761581421,0,-10,1,16.450801849365234,-10,1,19
1081,TRUE,4.800000190734863,7,6,0.5879999995231628,1,-10,10,3.8707993030548096,7,10,19
1082,FALSE,4.800000190734863,7,2,0,1,4,100,1.3073996305465698,1298,100,19
1083,FALSE,4.800000190734863,7,3,0.1920000165700912,1,9,101,1.2401998043060305,1307,101,19
1084,FALSE,4.800000190734863,7,4,0.3000000119209289,1,16,102,1.4736000299453735,1323,102,19
1085,FALSE,4.800000190734863,7,5,0.4320000410079956,1,25,103,1.180999994277954,1348,103,19
1086,TRUE,4.800000190734863,7,6,0.5879999995231628,1,-10,104,1.3970001935958862,1338,104,19
1087,TRUE,2.5999999046325684,7,8,0.5264999270439148,0,-10,105,1.9335999488830569,1328,105,19
1088,FALSE,4.800000190734863,7,5,0.4320000410079956,1,25,106,1.4905003309249878,1353,106,19
1089,FALSE,4.800000190734863,7,4,0.3000000119209289,1,16,107,1.1830999851226809,1369,107,19
1090,FALSE,4.800000190734863,7,4,0.3000000119209289,1,16,108,1.1178998947143557,1385,108,19
1091,FALSE,4.800000190734863,7,5,0.4320000410079956,1,25,109,1.4622995853424072,1410,109,19
1092,FALSE,2.5999999046325684,7,7,0.4160000085830688,0,49,11,2.017999649047852,56,11,19
1093,TRUE,4.800000190734863,7,6,0.5879999995231628,1,-10,110,1.6377997398376465,1400,110,19
1094,FALSE,4.800000190734863,7,4,0.3000000119209289,1,16,111,1.4709999561309814,1416,111,19
1095,TRUE,2.5999999046325684,7,8,0.5264999270439148,0,-10,112,2.2835001945495605,1406,112,19
1096,FALSE,2.5999999046325684,7,7,0.4160000085830688,0,49,113,1.599799394607544,1455,113,19
1097,TRUE,2.5999999046325684,7,7,0.4160000085830688,0,-10,114,1.4723000526428225,1445,114,19
1098,TRUE,2.5999999046325684,7,8,0.5264999270439148,0,-10,115,1.565099835395813,1435,115,19
1099,FALSE,4.800000190734863,7,7,0.768000066,1,49,116,1.466699719429016,1484,116,19
1100,TRUE,4.800000190734863,7,8,0.9719999432563782,1,-10,117,1.5329002141952517,1474,117,19
1101,FALSE,4.800000190734863,7,7,0.768000066,1,49,118,1.3511000871658323,1523,118,19
1102,TRUE,4.800000190734863,7,7,0.768000066,1,-10,119,1.831999659538269,1513,119,19
1103,FALSE,4.800000190734863,7,4,0.3000000119209289,1,16,12,2.202599525,72,12,19
1104,FALSE,2.5999999046325684,7,9,0.6499999761581421,0,81,120,2.255899667739868,1594,120,19
1105,TRUE,4.800000190734863,7,5,0.4320000410079956,1,-10,13,2.0499000549316406,62,13,19
1106,TRUE,2.5999999046325684,7,7,0.4160000085830688,0,-10,14,3.0923988819122314,52,14,19
1107,FALSE,2.5999999046325684,7,6,0.3184999823570251,0,36,15,2.451099395751953,88,15,19
1108,FALSE,2.5999999046325684,7,7,0.4160000085830688,0,49,16,2.818600416183472,137,16,19
1109,FALSE,2.5999999046325684,7,6,0.3184999823570251,0,36,17,5.403099536895752,173,17,19
1110,TRUE,4.800000190734863,7,4,0.3000000119209289,1,-10,18,2.270299434661865,163,18,19
1111,FALSE,4.800000190734863,7,3,0.1920000165700912,1,9,19,1.6592998504638672,172,19,19
1112,TRUE,4.800000190734863,7,9,1.2000000476837158,1,-10,2,3.9348998069763184,-20,2,19
1113,FALSE,4.800000190734863,7,3,0.1920000165700912,1,9,20,1.3692995309829712,181,20,19
1114,FALSE,4.800000190734863,7,4,0.3000000119209289,1,16,21,1.5668998956680298,197,21,19
1115,TRUE,4.800000190734863,7,5,0.4320000410079956,1,-10,22,1.8020999431610107,187,22,19
1116,TRUE,2.5999999046325684,7,4,0.1624999940395355,0,-10,23,1.6477999687194824,177,23,19
1117,TRUE,4.800000190734863,7,4,0.3000000119209289,1,-10,24,3.0983998775482178,167,24,19
1118,FALSE,2.5999999046325684,7,9,0.6499999761581421,0,81,25,3.936599731445313,248,25,19
1119,TRUE,2.5999999046325684,7,9,0.6499999761581421,0,-10,26,4.374101161956787,238,26,19
1120,TRUE,2.5999999046325684,7,9,0.6499999761581421,0,-10,27,1.8822994232177728,228,27,19
1121,FALSE,4.800000190734863,7,5,0.4320000410079956,1,25,28,1.7064999341964722,253,28,19
1122,TRUE,2.5999999046325684,7,9,0.6499999761581421,0,-10,29,1.998599886894226,243,29,19
1123,TRUE,2.5999999046325684,7,7,0.4160000085830688,0,-10,3,2.899299383163452,-30,3,19
1124,TRUE,4.800000190734863,7,4,0.3000000119209289,1,-10,30,1.7569000720977783,233,30,19
1125,FALSE,4.800000190734863,7,4,0.3000000119209289,1,16,31,2.371000051498413,249,31,19
1126,FALSE,4.800000190734863,7,3,0.1920000165700912,1,9,32,1.6699994802474976,258,32,19
1127,FALSE,4.800000190734863,7,3,0.1920000165700912,1,9,33,1.201200246810913,267,33,19
1128,TRUE,2.5999999046325684,7,9,0.6499999761581421,0,-10,34,5.484299182891846,257,34,19
1129,FALSE,2.5999999046325684,7,8,0.5264999270439148,0,64,35,1.9871000051498413,321,35,19
1130,FALSE,4.800000190734863,7,3,0.1920000165700912,1,9,36,1.968899846076965,330,36,19
1131,FALSE,4.800000190734863,7,3,0.1920000165700912,1,9,37,1.7344998121261597,339,37,19
1132,FALSE,4.800000190734863,7,6,0.5879999995231628,1,36,38,4.348800182342529,375,38,19
1133,FALSE,2.5999999046325684,7,8,0.5264999270439148,0,64,39,2.433401346206665,439,39,19
1134,FALSE,4.800000190734863,7,5,0.4320000410079956,1,25,4,3.435399055480957,-5,4,19
1135,FALSE,2.5999999046325684,7,8,0.5264999270439148,0,64,40,2.240199565887451,503,40,19
1136,TRUE,2.5999999046325684,7,9,0.6499999761581421,0,-10,41,2.399800062179565,493,41,19
1137,FALSE,2.5999999046325684,7,8,0.5264999270439148,0,64,42,1.986700296401977,557,42,19
1138,TRUE,4.800000190734863,7,9,1.2000000476837158,1,-10,43,4.843699932098389,547,43,19
1139,TRUE,4.800000190734863,7,7,0.768000066,1,-10,44,3.1709988117218018,537,44,19
1140,TRUE,4.800000190734863,7,5,0.4320000410079956,1,-10,45,1.3503000736236572,527,45,19
1141,FALSE,2.5999999046325684,7,4,0.1624999940395355,0,16,46,1.7220999002456665,543,46,19
1142,TRUE,2.5999999046325684,7,8,0.5264999270439148,0,-10,47,2.1040000915527344,533,47,19
1143,FALSE,2.5999999046325684,7,8,0.5264999270439148,0,64,48,1.6663991212844849,597,48,19
1144,FALSE,2.5999999046325684,7,8,0.5264999270439148,0,64,49,2.1153995990753174,661,49,19
1145,FALSE,4.800000190734863,7,6,0.5879999995231628,1,36,5,4.917798042297363,31,5,19
1146,FALSE,4.800000190734863,7,4,0.3000000119209289,1,16,50,3.4207987785339355,677,50,19
1147,TRUE,2.5999999046325684,7,8,0.5264999270439148,0,-10,51,2.051600456237793,667,51,19
1148,TRUE,2.5999999046325684,7,9,0.6499999761581421,0,-10,52,2.329999685287476,657,52,19
1149,FALSE,4.800000190734863,7,5,0.4320000410079956,1,25,53,1.885200023651123,682,53,19
1150,TRUE,2.5999999046325684,7,8,0.5264999270439148,0,-10,54,1.969799280166626,672,54,19
1151,FALSE,2.5999999046325684,7,7,0.4160000085830688,0,49,55,1.6840002536773682,721,55,19
1152,TRUE,4.800000190734863,7,5,0.4320000410079956,1,-10,56,1.868599534034729,711,56,19
1153,FALSE,4.800000190734863,7,3,0.1920000165700912,1,9,57,1.0503000020980835,720,57,19
1154,FALSE,4.800000190734863,7,3,0.1920000165700912,1,9,58,1.0510001182556152,729,58,19
